time,seconds_elapsed,z,y,x
2024-12-04 21:56:10.031636700,0.03163671875,0.2622539291143417,-1.1365411474362015,-0.0083892042912542
2024-12-04 21:56:10.041671700,0.041671630859375,0.2018020907610654,-1.0768920037679373,0.0478626981541514
2024-12-04 21:56:10.051707000,0.051706787109375,0.1794698474436998,-0.9612000703603027,0.2088949716314673
2024-12-04 21:56:10.061741800,0.061741943359375,0.1387286717325448,-0.8249478717438876,0.3352597632881254
2024-12-04 21:56:10.071776800,0.07177685546875,-0.0094873747915029,-0.7145621549855917,0.3507237282712012
2024-12-04 21:56:10.081811700,0.081811767578125,-0.2463923431158065,-0.611553615931794,0.2712904183331877
2024-12-04 21:56:10.091845600,0.091845703125,-0.5166694196879863,-0.5173589363221078,0.190167182546854
2024-12-04 21:56:10.101880800,0.101880859375,-0.8440402563571929,-0.4164920124068856,0.1629640452574938
2024-12-04 21:56:10.111915800,0.111915771484375,-1.2219178759485485,-0.3573957533810287,0.097459015167877
2024-12-04 21:56:10.121951000,0.121950927734375,-1.5308575683921577,-0.2948596560996026,0.0264930162586271
2024-12-04 21:56:10.131985700,0.131985595703125,-1.6341180363804102,-0.1881670947708189,0.0465226817220449
2024-12-04 21:56:10.142020600,0.1420205078125,-1.587692385292053,-0.0876389743559062,0.0697680943615734
2024-12-04 21:56:10.152055800,0.152055908203125,-1.464728853446245,-0.0453805990148335,0.06613762890473
2024-12-04 21:56:10.162089700,0.16208984375,-1.3013497245818375,-0.0727970867939293,0.0390701737590134
2024-12-04 21:56:10.172125000,0.172125,-1.199210369578004,-0.1305525987353175,-0.0352077261772006
2024-12-04 21:56:10.182159600,0.18215966796875,-1.131105386123061,-0.1797220686390996,-0.1145502160266041
2024-12-04 21:56:10.192194800,0.19219482421875,-1.0444470933675765,-0.2100829758396372,-0.1409656370043754
2024-12-04 21:56:10.202229800,0.202229736328125,-0.9016717765927316,-0.1823191359275952,-0.0828335468355566
2024-12-04 21:56:10.212264700,0.2122646484375,-0.8065735722720623,-0.1296403061959892,0.027010756522417
2024-12-04 21:56:10.222300000,0.2222998046875,-0.8074608765006065,-0.1184824043763801,0.1583480028294026
2024-12-04 21:56:10.232333600,0.23233349609375,-0.9731956285804508,-0.0711476025538519,0.25916122379601
2024-12-04 21:56:10.242368800,0.24236865234375,-1.232679508459568,0.0592206891231238,0.2473905603729188
2024-12-04 21:56:10.252403700,0.25240380859375,-1.5028174688220024,0.2287803332533687,0.0966844505988061
2024-12-04 21:56:10.262438700,0.262438720703125,-1.730777498668432,0.3701272246602922,-0.1117270483646541
2024-12-04 21:56:10.272473900,0.272473876953125,-1.8172347158938644,0.4065785211578011,-0.2891518729120493
2024-12-04 21:56:10.282508800,0.2825087890625,-1.785555383038521,0.4505373072085902,-0.398300960547477
2024-12-04 21:56:10.292543700,0.292543701171875,-1.597142935204506,0.6194653389044106,-0.279056156963855
2024-12-04 21:56:10.302577700,0.30257763671875,-1.3177443945437668,0.8606939425814897,-0.1047805171623826
2024-12-04 21:56:10.312612900,0.31261279296875,-1.100015835854411,1.1318594193607567,0.0396085914846509
2024-12-04 21:56:10.322647800,0.322647705078125,-0.9579764321386812,1.3931494718790054,0.1493853825643658
2024-12-04 21:56:10.332682800,0.332682861328125,-0.9531500348955392,1.52409201977998,0.1385819567382335
2024-12-04 21:56:10.342717700,0.3427177734375,-1.0542512790232896,1.473477684830129,-0.0576378038458526
2024-12-04 21:56:10.352752600,0.352752685546875,-1.207371464201808,1.29235627078712,-0.3180153446290641
2024-12-04 21:56:10.362787800,0.362787841796875,-1.3194891923844814,1.076314496140927,-0.5896491695724427
2024-12-04 21:56:10.372821800,0.37282177734375,-1.2932739701539278,0.892942526692152,-0.8481428693704307
2024-12-04 21:56:10.382857000,0.38285693359375,-1.0326654701590536,0.7630225998371839,-1.0679145512599495
2024-12-04 21:56:10.392892000,0.392891845703125,-0.6014157413423061,0.6952967518929392,-1.14416031720303
2024-12-04 21:56:10.402926600,0.402926513671875,-0.1191553717344999,0.6884850991167127,-1.099694860271737
2024-12-04 21:56:10.412961800,0.4129619140625,0.2663081729412078,0.6885292305193841,-1.0320330174744128
2024-12-04 21:56:10.422996700,0.422996826171875,0.5047732301890849,0.5710655381988734,-0.9788313694451004
2024-12-04 21:56:10.433031000,0.433031005859375,0.574765050303936,0.3977809187287464,-0.9717270173326136
2024-12-04 21:56:10.443065900,0.44306591796875,0.5769727894812822,0.2570204489076509,-0.9616383887123316
2024-12-04 21:56:10.453100800,0.453100830078125,0.5687585033655166,0.2171336067372001,-0.9065325144968926
2024-12-04 21:56:10.463135700,0.4631357421875,0.6025076282322407,0.2366334579065442,-0.8481864893164485
2024-12-04 21:56:10.473170700,0.473170654296875,0.646256169065833,0.2148394861843436,-0.9302268399477004
2024-12-04 21:56:10.483206000,0.483205810546875,0.7217652912974357,0.1171038460321724,-0.9897564488895236
2024-12-04 21:56:10.493240800,0.49324072265625,0.7643640775740146,0.0158186419059522,-0.9322628758199512
2024-12-04 21:56:10.503274800,0.503274658203125,0.7646335421651601,-0.0872408053511753,-0.8517325644254684
2024-12-04 21:56:10.513309700,0.513309814453125,0.7694459108829498,-0.2057160676007159,-0.785506818845868
2024-12-04 21:56:10.523344600,0.5233447265625,0.825455382874608,-0.2629842892155051,-0.7361617731794714
2024-12-04 21:56:10.533379800,0.5333798828125,0.8895692508667707,-0.2762477484796196,-0.6383894542787224
2024-12-04 21:56:10.543414800,0.543414794921875,0.9389975909024476,-0.3092432785000651,-0.5707957082815468
2024-12-04 21:56:10.553450000,0.553449951171875,0.9898328751266002,-0.3758117000374942,-0.5208822881426662
2024-12-04 21:56:10.563484700,0.563484619140625,1.0100912347793578,-0.4509272563742473,-0.4128096706323325
2024-12-04 21:56:10.573519600,0.57351953125,0.9866951616227626,-0.513757404698804,-0.3229433756157756
2024-12-04 21:56:10.583553800,0.5835537109375,0.8784633349627256,-0.5557758338041603,-0.3437573963899165
2024-12-04 21:56:10.593588700,0.593588623046875,0.7382195824921131,-0.5487841848185285,-0.4027707263726741
2024-12-04 21:56:10.603624000,0.6036240234375,0.6678828944623469,-0.4583180242126807,-0.4346939509864896
2024-12-04 21:56:10.613658600,0.61365869140625,0.62647419475317,-0.3533553919490426,-0.446441452729702
2024-12-04 21:56:10.623693800,0.62369384765625,0.5731634603261947,-0.2762925374694168,-0.4695956068892031
2024-12-04 21:56:10.633728800,0.633728759765625,0.4792506663978099,-0.2493437767999246,-0.4497819222640246
2024-12-04 21:56:10.643763700,0.643763671875,0.3018792525380849,-0.2401733772694133,-0.4241432578124106
2024-12-04 21:56:10.653798000,0.6537978515625,0.1132043543756008,-0.2436169783846475,-0.4579952585317194
2024-12-04 21:56:10.663832600,0.66383251953125,0.0626052169948816,-0.2213481556923128,-0.4922004566028714
2024-12-04 21:56:10.673867800,0.67386767578125,0.1138046583563089,-0.1722105970304459,-0.4709988978158682
2024-12-04 21:56:10.683902700,0.68390283203125,0.2510714408427477,-0.1082342286796774,-0.4371184381870552
2024-12-04 21:56:10.693937700,0.693937744140625,0.4049620258718728,-0.0965762501171324,-0.4634465827401727
2024-12-04 21:56:10.703972900,0.703972900390625,0.5227642294317484,-0.1308890184822957,-0.4687282129375263
2024-12-04 21:56:10.714007800,0.7140078125,0.5882394489049911,-0.1558192515367642,-0.3969500939277932
2024-12-04 21:56:10.724041700,0.724041748046875,0.5685054053872823,-0.1330817153541371,-0.2717267639238387
2024-12-04 21:56:10.734076700,0.73407666015625,0.4794944120258093,-0.1259333779694512,-0.1752154414022341
2024-12-04 21:56:10.744111900,0.74411181640625,0.3370627941220998,-0.1578640552373603,-0.170368951219134
2024-12-04 21:56:10.754146300,0.754146240234375,0.1841881081372499,-0.1650106390563771,-0.1771179140226915
2024-12-04 21:56:10.764181200,0.76418115234375,0.0791518626481294,-0.1329699894748162,-0.1236050080871209
2024-12-04 21:56:10.774216200,0.77421630859375,0.058665539458394,-0.0640648412186652,-0.0645079453436657
2024-12-04 21:56:10.784251100,0.784251220703125,0.0777484255909919,0.0040343152836896,0.0050972500737756
2024-12-04 21:56:10.794285300,0.794285400390625,0.0566559532016515,0.0162335565495071,0.0408390465950593
2024-12-04 21:56:10.804320300,0.8043203125,0.0422895741969346,-0.0120101256016176,0.0624564927065744
2024-12-04 21:56:10.814355200,0.814355224609375,0.0190776254355907,-0.0379811729459092,0.0990132223399355
2024-12-04 21:56:10.824390100,0.82439013671875,0.0028846155256032,-0.0282358322048094,0.2026135167418047
2024-12-04 21:56:10.834425000,0.834425048828125,-0.0733697721153497,0.0245398728968575,0.2848726977555081
2024-12-04 21:56:10.844460300,0.844460205078125,-0.2124047333180904,0.0603577668616548,0.3278920475317165
2024-12-04 21:56:10.854495200,0.8544951171875,-0.3913093480944633,0.0882663216071669,0.3474231888884678
2024-12-04 21:56:10.864529200,0.864529052734375,-0.5017489139318466,0.1406265321099665,0.3152216587899252
2024-12-04 21:56:10.874564000,0.874564208984375,-0.5214209981292486,0.2010139543243684,0.2308991520382463
2024-12-04 21:56:10.884599300,0.884599365234375,-0.4576069898664951,0.2539666142949834,0.1019049982586875
2024-12-04 21:56:10.894634200,0.89463427734375,-0.3303413769125938,0.3278075475860387,0.0212459824506193
2024-12-04 21:56:10.904669200,0.904669189453125,-0.2193663890242576,0.3921196780966595,-0.0546478647822514
2024-12-04 21:56:10.914704400,0.914704345703125,-0.1946025346457958,0.3902335355564951,-0.0871694936806336
2024-12-04 21:56:10.924739000,0.924739013671875,-0.2558557525098324,0.3528553334724157,-0.1549701969593763
2024-12-04 21:56:10.934773200,0.934773193359375,-0.3376917396754026,0.3302982684232294,-0.1956758629657328
2024-12-04 21:56:10.944808200,0.94480810546875,-0.3838268833845853,0.3430971789155155,-0.1226328385867178
2024-12-04 21:56:10.954843400,0.954843505859375,-0.345216289961338,0.3925799890847876,0.0428247039869427
2024-12-04 21:56:10.964878300,0.96487841796875,-0.2440864042609929,0.4510866481870412,0.2713015973143279
2024-12-04 21:56:10.974913000,0.9749130859375,-0.1764309181392192,0.4275931060053408,0.4702352930322289
2024-12-04 21:56:10.984948200,0.9849482421875,-0.1788923398166894,0.3349346960522234,0.5510510703045874
2024-12-04 21:56:10.994983200,0.994983154296875,-0.1965109986156225,0.2300791408922523,0.508392151338607
2024-12-04 21:56:11.005018000,1.00501806640625,-0.2093839241921901,0.2168499674902297,0.4866015406172722
2024-12-04 21:56:11.015052300,1.01505224609375,-0.2030085439413785,0.3304171820951626,0.5622942027222365
2024-12-04 21:56:11.025087200,1.025087158203125,-0.219464588701725,0.4698084093896671,0.6493599803000688
2024-12-04 21:56:11.035122200,1.0351220703125,-0.3033294513463974,0.571871557352133,0.6430238360811025
2024-12-04 21:56:11.045157000,1.0451572265625,-0.4929553666234016,0.6727710318300872,0.6074794252954423
2024-12-04 21:56:11.055192300,1.0551923828125,-0.7463292391896248,0.7810877602946013,0.5934100564759224
2024-12-04 21:56:11.065227300,1.065227294921875,-1.042404189363122,0.8942284748494624,0.5588553873799741
2024-12-04 21:56:11.075262200,1.07526220703125,-1.34368079983294,1.0253364424452185,0.4800456892330199
2024-12-04 21:56:11.085296000,1.085296142578125,-1.5083780255585908,1.0954526195921004,0.3669929452225565
2024-12-04 21:56:11.095331000,1.0953310546875,-1.568651000213623,1.093834516870975,0.2543588650155812
2024-12-04 21:56:11.105366300,1.1053662109375,-1.5266571940928697,1.0676055583760142,0.20753318175897
2024-12-04 21:56:11.115401200,1.115401123046875,-1.405884450289607,1.0156902968954291,0.216152760739997
2024-12-04 21:56:11.125436400,1.1254365234375,-1.2104442957758903,0.9435200367629528,0.315660671261698
2024-12-04 21:56:11.135471000,1.13547119140625,-0.9586860417127608,0.8284007156115025,0.4677525363057851
2024-12-04 21:56:11.145506000,1.145506103515625,-0.6475789421021938,0.6943181161191314,0.6872226049002259
2024-12-04 21:56:11.155541200,1.155541259765625,-0.3857230723947286,0.5539089439537376,0.9151933022711426
2024-12-04 21:56:11.165575200,1.1655751953125,-0.1652957761406898,0.3827061357263475,1.0624999058000744
2024-12-04 21:56:11.175610400,1.1756103515625,0.0332189635127782,0.2276431824496015,1.0909244015779345
2024-12-04 21:56:11.185645300,1.185645263671875,0.2243295643895864,0.1002370650464668,1.067872027292475
2024-12-04 21:56:11.195680300,1.19568017578125,0.4654138642251491,0.0240441618017852,0.994287954839319
2024-12-04 21:56:11.205715200,1.205715087890625,0.7554886972010135,-0.0384369173567742,0.8597801156722009
2024-12-04 21:56:11.215750100,1.215750244140625,1.0293623369604348,-0.0802679706638678,0.7185043167401105
2024-12-04 21:56:11.225785300,1.225785400390625,1.2626982146263122,-0.0971579133294522,0.6045582040864974
2024-12-04 21:56:11.235819300,1.2358193359375,1.382271519511938,-0.1426916205467656,0.5089378755878656
2024-12-04 21:56:11.245854200,1.245854248046875,1.3202350423157214,-0.1716582238446921,0.4816761399790644
2024-12-04 21:56:11.255889200,1.25588916015625,1.1584282773345709,-0.2327319934885948,0.3824897164966911
2024-12-04 21:56:11.265924000,1.265924072265625,0.9600655133724212,-0.2861961649116128,0.2624208101138472
2024-12-04 21:56:11.275959300,1.275959228515625,0.7796113310664892,-0.2970996901113539,0.1980190650910138
2024-12-04 21:56:11.285994200,1.285994140625,0.6675573157697916,-0.3036584641050547,0.1488479877520352
2024-12-04 21:56:11.296029400,1.296029541015625,0.5991670856326818,-0.3014581045165658,0.0914680311247706
2024-12-04 21:56:11.306064100,1.306064208984375,0.5599702167540789,-0.3233564864613115,-0.0070054217826575
2024-12-04 21:56:11.316098300,1.316098388671875,0.5929863511711359,-0.3470218050133437,-0.1067203261185437
2024-12-04 21:56:11.326133200,1.32613330078125,0.6075602354466915,-0.3149656016696244,-0.172351686001569
2024-12-04 21:56:11.336168200,1.336168212890625,0.5755377882421017,-0.3443583579577505,-0.213317829575017
2024-12-04 21:56:11.346203400,1.346203369140625,0.5322679708361625,-0.4162654371093958,-0.3136599989637732
2024-12-04 21:56:11.356238000,1.356238037109375,0.5073147313654423,-0.4814221652179956,-0.3820853734795004
2024-12-04 21:56:11.366273300,1.366273193359375,0.5192126744300126,-0.536007668821141,-0.3734358377516269
2024-12-04 21:56:11.376308200,1.37630810546875,0.5121235929518938,-0.5772966146081686,-0.349824295213446
2024-12-04 21:56:11.386343200,1.38634326171875,0.5327747513145208,-0.5909897705264389,-0.3153971249546855
2024-12-04 21:56:11.396377300,1.39637744140625,0.5490881727337837,-0.5734140740863979,-0.2914076890148222
2024-12-04 21:56:11.406412000,1.406412109375,0.5517027391463518,-0.584782367253676,-0.326757892402634
2024-12-04 21:56:11.416447200,1.416447265625,0.5530553227990865,-0.6223943050283939,-0.3771110921982675
2024-12-04 21:56:11.426482200,1.426482177734375,0.5566302586764097,-0.5983588379897177,-0.3842961813967674
2024-12-04 21:56:11.436517000,1.43651708984375,0.5027414321005345,-0.5334308040704577,-0.403875911135599
2024-12-04 21:56:11.446552300,1.44655224609375,0.39819735404253,-0.5167844243697822,-0.447905387802422
2024-12-04 21:56:11.456587300,1.456587158203125,0.3174702049016952,-0.5308242748338728,-0.4570578315511345
2024-12-04 21:56:11.466622200,1.466622314453125,0.2813707175165414,-0.5356756603877991,-0.4432294318806379
2024-12-04 21:56:11.476656000,1.47665625,0.278969501593709,-0.521522339611873,-0.3725681150063872
2024-12-04 21:56:11.486691300,1.48669140625,0.2412269231766462,-0.5153326911915094,-0.3418499553333968
2024-12-04 21:56:11.496726300,1.496726318359375,0.2010539027422666,-0.5151283277258276,-0.3484503765117376
2024-12-04 21:56:11.506761200,1.50676123046875,0.1542138256341219,-0.4971094906281679,-0.3173364224541932
2024-12-04 21:56:11.516796200,1.516796142578125,0.0743470927149057,-0.4734214853202924,-0.2948891013897955
2024-12-04 21:56:11.526831000,1.5268310546875,0.008668459624052,-0.4452137010330334,-0.3010877368342131
2024-12-04 21:56:11.536866300,1.5368662109375,-0.064594344985485,-0.4201140388289466,-0.2930737955961376
2024-12-04 21:56:11.546901200,1.5469013671875,-0.1492664323598146,-0.3967896792016923,-0.262581553633511
2024-12-04 21:56:11.556935400,1.556935302734375,-0.2316214749634265,-0.3761805698825046,-0.235267211054638
2024-12-04 21:56:11.566970000,1.56697021484375,-0.2775122885227203,-0.3673003672039136,-0.1451575357362627
2024-12-04 21:56:11.577005000,1.577005126953125,-0.3001917378425598,-0.3594295607635751,0.0146905694577842
2024-12-04 21:56:11.587040300,1.587040283203125,-0.3424368883758783,-0.3600492270318791,0.1207635375835001
2024-12-04 21:56:11.597075200,1.5970751953125,-0.4066413572609424,-0.3445590316290036,0.1500244111202657
2024-12-04 21:56:11.607110100,1.607110107421875,-0.4708031560480594,-0.2942672431644052,0.1507927651442587
2024-12-04 21:56:11.617145300,1.617145263671875,-0.5460808076113463,-0.2381570507446304,0.1210099866252392
2024-12-04 21:56:11.627180300,1.62718017578125,-0.6034902095288038,-0.1801396729966625,0.0882797564774751
2024-12-04 21:56:11.637214200,1.637214111328125,-0.6001806465893984,-0.1098784978885203,0.0970577408906072
2024-12-04 21:56:11.647249200,1.647249267578125,-0.5847609591394662,-0.0519888016408309,0.1055146766558289
2024-12-04 21:56:11.657284400,1.657284423828125,-0.5974976911157369,-0.0336120544835925,0.0534818532101809
2024-12-04 21:56:11.667319300,1.6673193359375,-0.6169821437865496,-0.0305801394417881,0.008674012582004
2024-12-04 21:56:11.677354200,1.677354248046875,-0.6738374189525842,-0.0149858260773122,0.0035309506051242
2024-12-04 21:56:11.687389200,1.68738916015625,-0.7276087566286326,0.0375664546651765,0.0661910395924001
2024-12-04 21:56:11.697424100,1.697424072265625,-0.7659159831911325,0.1420890515437349,0.2138112391151487
2024-12-04 21:56:11.707459300,1.707459228515625,-0.8455775489270687,0.2570449988270178,0.4012212319083512
2024-12-04 21:56:11.717493200,1.7174931640625,-0.974851579093933,0.354940396118164,0.5876742893029004
2024-12-04 21:56:11.727528400,1.727528564453125,-1.1719377472490071,0.4797268325421959,0.6955571563947945
2024-12-04 21:56:11.737563100,1.737563232421875,-1.4635679929733276,0.6161662973590195,0.6538969661425799
2024-12-04 21:56:11.747597800,1.747597900390625,-1.7518249628722666,0.7268208941865711,0.5200208490077406
2024-12-04 21:56:11.757633000,1.757633056640625,-1.9087790271252392,0.8666198985643684,0.3698829675756395
2024-12-04 21:56:11.767668000,1.76766796875,-1.9707430236071344,1.0384190652497112,0.2697407777383923
2024-12-04 21:56:11.777703000,1.777702880859375,-1.9182634793072937,1.1964818213969468,0.1527197146188467
2024-12-04 21:56:11.787737900,1.78773779296875,-1.784557019650936,1.2864113909080623,0.0019079525131732
2024-12-04 21:56:11.797772000,1.79777197265625,-1.615893228381872,1.2774804809555411,-0.1761248478647321
2024-12-04 21:56:11.807807000,1.807806884765625,-1.4536054018855094,1.2247376826096326,-0.3178854346390813
2024-12-04 21:56:11.817842000,1.817842041015625,-1.323383861735463,1.1394461481627076,-0.4145900512430817
2024-12-04 21:56:11.827876900,1.827876953125,-1.2235948692500591,1.0183484832540153,-0.4778881458729505
2024-12-04 21:56:11.837911800,1.837911865234375,-1.1264905858039855,0.8767064082928001,-0.5761767437327653
2024-12-04 21:56:11.847947000,1.847947021484375,-1.0229413640022278,0.7621973279941827,-0.6906211612973362
2024-12-04 21:56:11.857982000,1.85798193359375,-0.8754927947193384,0.6790292154420167,-0.8004789086587727
2024-12-04 21:56:11.868017000,1.868016845703125,-0.6840799960255622,0.6197490512166172,-0.859446061412245
2024-12-04 21:56:11.878050800,1.87805078125,-0.4505278452605009,0.5755803852748126,-0.8658125277042389
2024-12-04 21:56:11.888085800,1.888085693359375,-0.2183329543232917,0.5384692366290837,-0.7935822079475968
2024-12-04 21:56:11.898121000,1.898120849609375,-0.0181213476240634,0.5142310135599225,-0.7093804414987563
2024-12-04 21:56:11.908156000,1.908156005859375,0.1338350544720888,0.4344111154571175,-0.6966032313816249
2024-12-04 21:56:11.918190800,1.91819091796875,0.2295832471340894,0.3160323541183024,-0.7614329925581812
2024-12-04 21:56:11.928226000,1.92822607421875,0.3301198431164026,0.2240101231768727,-0.8330001722309738
2024-12-04 21:56:11.938260700,1.9382607421875,0.4816454525798559,0.1467187206383794,-0.84113635160923
2024-12-04 21:56:11.948296000,1.9482958984375,0.6718073744297027,0.0844217658750712,-0.7943738697819411
2024-12-04 21:56:11.958331000,1.958330810546875,0.8831897789627313,-0.0203116972751915,-0.7433225316543132
2024-12-04 21:56:11.968365000,1.968364990234375,1.113697739726305,-0.1802232230942696,-0.6707072311680764
2024-12-04 21:56:11.978400000,1.97839990234375,1.255280631846189,-0.3007718027528375,-0.5026272311363369
2024-12-04 21:56:11.988434700,1.9884345703125,1.3209504971086978,-0.3885889101546257,-0.2811576958203688
2024-12-04 21:56:11.998470000,1.998469970703125,1.3109902441084385,-0.4779890489641576,-0.1273582231407985
2024-12-04 21:56:12.008504800,2.0085048828125,1.1638994022220372,-0.5463192194771022,-0.0610151347918435
2024-12-04 21:56:12.018540000,2.0185400390625,0.9519418281495572,-0.579565070996806,-0.0699200700528919
2024-12-04 21:56:12.028575000,2.028574951171875,0.7593617392420768,-0.5449586717136204,-0.0900329933529719
2024-12-04 21:56:12.038610000,2.03860986328125,0.6228548352122306,-0.4611876248322427,-0.1145045502539724
2024-12-04 21:56:12.048643800,2.048643798828125,0.52647243629992,-0.3638887686621397,-0.1504182692760601
2024-12-04 21:56:12.058678800,2.0586787109375,0.436396444055438,-0.2887939993850886,-0.2045335615515708
2024-12-04 21:56:12.068714000,2.0687138671875,0.3852443489670753,-0.206566236422956,-0.2037444204678759
2024-12-04 21:56:12.078749000,2.0787490234375,0.3539525541245937,-0.1194091272998601,-0.1364738420104607
2024-12-04 21:56:12.088784000,2.088783935546875,0.3597925123244523,-0.0695654844615608,-0.1251043432667851
2024-12-04 21:56:12.098818800,2.09881884765625,0.4011182099252939,-0.0652803544882685,-0.1195084229558706
2024-12-04 21:56:12.108853800,2.108853759765625,0.4666115495771169,-0.0869443431552499,-0.0883128915620967
2024-12-04 21:56:12.118889000,2.118888916015625,0.5766770214051008,-0.115633554283902,-0.0269287773273885
2024-12-04 21:56:12.128923000,2.1289228515625,0.6920201413750648,-0.1556967576682567,0.0503213433526456
2024-12-04 21:56:12.138958000,2.1389580078125,0.790257228243351,-0.2142925198260694,0.1029064669188112
2024-12-04 21:56:12.148992800,2.14899267578125,0.8723369610369205,-0.2672826439965516,0.1171255098747089
2024-12-04 21:56:12.159027700,2.15902783203125,0.9461375257849692,-0.309376293762587,0.0833133297091349
2024-12-04 21:56:12.169063000,2.16906298828125,1.0038491255193949,-0.3482852856105193,0.0432736350645311
2024-12-04 21:56:12.179097900,2.179097900390625,1.074950368180871,-0.3782796975862235,0.0790818844181485
2024-12-04 21:56:12.189133000,2.189133056640625,1.1114730494141578,-0.3661804963285103,0.1782840717252344
2024-12-04 21:56:12.199168000,2.19916796875,1.1093383754730224,-0.3915873613182455,0.2311949749133549
2024-12-04 21:56:12.209203000,2.209202880859375,1.0805407355338337,-0.4370160007258877,0.1775066576119512
2024-12-04 21:56:12.219236900,2.21923681640625,1.0493787045508622,-0.4415108279271051,0.1267777746380306
2024-12-04 21:56:12.229271800,2.229271728515625,1.0468208367615937,-0.4153645792795345,0.0788062092819251
2024-12-04 21:56:12.239307000,2.23930712890625,1.07713414196074,-0.3629011823968961,0.104897129279375
2024-12-04 21:56:12.249342000,2.249342041015625,1.0743798748165367,-0.3051762482568621,0.1166298718448728
2024-12-04 21:56:12.259377000,2.259376953125,1.0009528195559978,-0.2911395395979285,0.0875097036867402
2024-12-04 21:56:12.269411800,2.269411865234375,0.8516425480544567,-0.2486769651879556,0.1023774746086448
2024-12-04 21:56:12.279446800,2.27944677734375,0.6518208174556493,-0.1366079897841438,0.1796394866558723
2024-12-04 21:56:12.289482000,2.28948193359375,0.4412508983492851,0.002898406588938,0.2149647565318271
2024-12-04 21:56:12.299517000,2.299516845703125,0.2194061365127563,0.106074064104259,0.1873773691652342
2024-12-04 21:56:12.309551000,2.309551025390625,0.0406231022894382,0.1737561642383225,0.1580910323936492
2024-12-04 21:56:12.319585800,2.319585693359375,-0.1114075340867042,0.2352833767381496,0.1595005338653922
2024-12-04 21:56:12.329620700,2.329620849609375,-0.2504436643332243,0.2805955866918899,0.1772272013497538
2024-12-04 21:56:12.339656000,2.339656005859375,-0.3448696684807539,0.2740997766654938,0.2000832676118239
2024-12-04 21:56:12.349691000,2.34969091796875,-0.4272796561419963,0.2656314061908051,0.1720045895969495
2024-12-04 21:56:12.359726000,2.35972607421875,-0.4769014729231596,0.2565057591174729,0.0949744683431461
2024-12-04 21:56:12.369761000,2.369760986328125,-0.4740273787915706,0.2583104521855712,0.0030471126109361
2024-12-04 21:56:12.379795700,2.379795654296875,-0.4583838194578886,0.2375442526085302,-0.0903553754414431
2024-12-04 21:56:12.389831000,2.389830810546875,-0.4713566982775926,0.2292407903719693,-0.1105560866228304
2024-12-04 21:56:12.399864800,2.39986474609375,-0.5569435624092817,0.2471452803749591,-0.0997978151126764
2024-12-04 21:56:12.409900000,2.409900146484375,-0.648484951031208,0.2375425173091702,-0.1150431141100823
2024-12-04 21:56:12.419935000,2.41993505859375,-0.7202654081284999,0.1277981489280238,-0.1908902726570144
2024-12-04 21:56:12.429969700,2.4299697265625,-0.7012924121111631,-0.0018622502079233,-0.259989199052751
2024-12-04 21:56:12.440004900,2.4400048828125,-0.594919949582219,-0.0749742481699213,-0.2456250120051205
2024-12-04 21:56:12.450039800,2.450039794921875,-0.4292611853480338,-0.0842751056796871,-0.1196822451528161
2024-12-04 21:56:12.460075000,2.460074951171875,-0.2928706011742353,-0.0684973255070857,0.0437880691263824
2024-12-04 21:56:12.470110000,2.47010986328125,-0.1931815619319677,-0.0618822364825755,0.1448178554531186
2024-12-04 21:56:12.480145000,2.480144775390625,-0.1666711561471223,-0.0922768267570063,0.1752551888907328
2024-12-04 21:56:12.490178800,2.4901787109375,-0.1853799482703209,-0.0779242570819333,0.1716143116377294
2024-12-04 21:56:12.500213800,2.5002138671875,-0.275056712064147,0.0555516817541792,0.2102391893146559
2024-12-04 21:56:12.510249000,2.5102490234375,-0.4418956259936094,0.2434991424249485,0.2176940353652462
2024-12-04 21:56:12.520284000,2.520283935546875,-0.7199900983184576,0.4235838703639805,0.1721850972630083
2024-12-04 21:56:12.530318800,2.53031884765625,-1.113229537692666,0.5608624894186854,0.1392039610940963
2024-12-04 21:56:12.540353800,2.540353759765625,-1.571060399442911,0.7328805595517158,0.1405182585630565
2024-12-04 21:56:12.550388700,2.550388671875,-1.9347972654789685,0.9161202809229492,0.1473759424380958
2024-12-04 21:56:12.560424000,2.560423828125,-2.1357681661128995,1.0533105641070752,0.1406030142370611
2024-12-04 21:56:12.570457900,2.570457763671875,-2.178851521036029,1.153806170491874,0.1777235152330249
2024-12-04 21:56:12.580493000,2.5804931640625,-2.046983967244625,1.2696695149436592,0.2922070957642048
2024-12-04 21:56:12.590527700,2.59052783203125,-1.9097931726038453,1.334255092100799,0.4360992146745324
2024-12-04 21:56:12.600562700,2.600562744140625,-1.7688029856801033,1.277736939934641,0.4415531692314893
2024-12-04 21:56:12.610598000,2.610597900390625,-1.6433137347489597,1.1614438257634638,0.3195378049559891
2024-12-04 21:56:12.620632800,2.6206328125,-1.5688473995685577,1.0250488576754928,0.1124055321481078
2024-12-04 21:56:12.630668000,2.63066796875,-1.4250310493081808,0.8744970616802573,-0.0736996616568416
2024-12-04 21:56:12.640703000,2.640702880859375,-1.198840951743722,0.7607567007318139,-0.1537949426349252
2024-12-04 21:56:12.650738000,2.650738037109375,-0.8839929120391606,0.6582038695562631,-0.10572715036273
2024-12-04 21:56:12.660772900,2.66077294921875,-0.5450047028124332,0.5351899957627058,-0.0167271898519247
2024-12-04 21:56:12.670806800,2.670806884765625,-0.2282481991380453,0.3828654910065233,0.0968592957090586
2024-12-04 21:56:12.680842000,2.680842041015625,0.0518938533663749,0.2352525249421596,0.2215115112941712
2024-12-04 21:56:12.690877000,2.690876953125,0.2757125456243753,0.1358882606748491,0.3330060660772025
2024-12-04 21:56:12.700911900,2.700911865234375,0.4389928902894258,0.0553366142313927,0.4027172426197677
2024-12-04 21:56:12.710946800,2.71094677734375,0.5447463441371917,-0.0396999960951507,0.3884994052402675
2024-12-04 21:56:12.720981800,2.720981689453125,0.6776321350604295,-0.1135357052218168,0.3334579014979302
2024-12-04 21:56:12.731017000,2.731016845703125,0.8329150512307881,-0.1342440005991607,0.339170360860601
2024-12-04 21:56:12.741052000,2.741052001953125,0.9837450796455144,-0.1937800392817705,0.3222467716537416
2024-12-04 21:56:12.751086800,2.7510869140625,1.0709119064450263,-0.2833050465799868,0.3203964676119387
2024-12-04 21:56:12.761121000,2.76112109375,1.1095984877139329,-0.3947970440797507,0.3214073251549154
2024-12-04 21:56:12.771156000,2.771156005859375,1.1286357811391352,-0.4892883685484528,0.4032825483523309
2024-12-04 21:56:12.781191200,2.781191162109375,1.1303647968888282,-0.5154313292603939,0.5574949126817286
2024-12-04 21:56:12.791225900,2.791225830078125,1.0881067868739367,-0.5534441029209644,0.6346622504491358
2024-12-04 21:56:12.801261000,2.801260986328125,1.0457248582184313,-0.585956525599584,0.6455768084995448
2024-12-04 21:56:12.811296000,2.8112958984375,1.0027624993264674,-0.6423869264170528,0.5967431464213877
2024-12-04 21:56:12.821331000,2.8213310546875,0.9597019407570362,-0.6952781933229416,0.5315408986706286
2024-12-04 21:56:12.831366100,2.8313662109375,0.9083797497987748,-0.6812620159953833,0.4706136248253285
2024-12-04 21:56:12.841401000,2.841401123046875,0.854909440895915,-0.621171996691823,0.4035509534975514
2024-12-04 21:56:12.851435800,2.851435791015625,0.7485334712356329,-0.562031679328531,0.3261552868669852
2024-12-04 21:56:12.861470000,2.861469970703125,0.6130167472869158,-0.5107921982176602,0.2448751069532707
2024-12-04 21:56:12.871505000,2.8715048828125,0.4755132334351539,-0.4719992339648306,0.1646353394705802
2024-12-04 21:56:12.881540000,2.8815400390625,0.3666571373969316,-0.4561747651062905,0.1397661250215023
2024-12-04 21:56:12.891575000,2.891574951171875,0.3021545623481273,-0.5012827577248216,0.1150030743606388
2024-12-04 21:56:12.901610000,2.90160986328125,0.3187169900923967,-0.5799253556765616,0.1211737988848239
2024-12-04 21:56:12.911645000,2.91164501953125,0.4253513184279203,-0.6650823039583862,0.1462731322953477
2024-12-04 21:56:12.921680000,2.921679931640625,0.5713485198587179,-0.751924721109122,0.1106412258893251
2024-12-04 21:56:12.931715000,2.931715087890625,0.7329010178178549,-0.8202306339636445,0.096611641090922
2024-12-04 21:56:12.941750000,2.94175,0.91476682048738,-0.8621445067159831,0.1012672118118032
2024-12-04 21:56:12.951784200,2.9517841796875,1.0068845476925372,-0.856276345334947,0.0922300284732133
2024-12-04 21:56:12.961819000,2.96181884765625,1.0177788666725158,-0.8893959401264786,0.0590497530030086
2024-12-04 21:56:12.971854000,2.97185400390625,0.9622223991453648,-0.9105107704780996,0.0603780059320852
2024-12-04 21:56:12.981889000,2.981888916015625,0.868089240464568,-0.8570375389657914,0.1422988218368962
2024-12-04 21:56:12.991924000,2.991924072265625,0.7529080330580472,-0.7984042212765663,0.2032187526259571
2024-12-04 21:56:13.001959200,3.001959228515625,0.6033130993962288,-0.7539720820929855,0.2162385393273085
2024-12-04 21:56:13.011994000,3.011994140625,0.3939104705035686,-0.7080674592040479,0.2086097980145365
2024-12-04 21:56:13.022028800,3.02202880859375,0.2059206319957971,-0.6550297695647925,0.2049261775983497
2024-12-04 21:56:13.032064000,3.03206396484375,0.0330295784205198,-0.6089953828163445,0.1847089536735787
2024-12-04 21:56:13.042099000,3.042098876953125,-0.1021820251017808,-0.575764948061481,0.1530346988521516
2024-12-04 21:56:13.052133000,3.052133056640625,-0.1973994718879461,-0.5286985148515552,0.106957130549103
2024-12-04 21:56:13.062168000,3.06216796875,-0.3114759329229593,-0.4205095774851739,0.0268462866757065
2024-12-04 21:56:13.072203000,3.072203125,-0.4179880961835384,-0.2972458936490118,-0.0640851168217137
2024-12-04 21:56:13.082238000,3.082238037109375,-0.5240601144611835,-0.2036011030070483,-0.1366742234207689
2024-12-04 21:56:13.092273000,3.09227294921875,-0.6301677885740995,-0.1174055323924869,-0.1359230762599036
2024-12-04 21:56:13.102308000,3.10230810546875,-0.6935755541235208,-0.0250386527318507,-0.1229904563853517
2024-12-04 21:56:13.112343000,3.112343017578125,-0.6961363445222377,0.03125036685355,-0.1289300025021657
2024-12-04 21:56:13.122378000,3.1223779296875,-0.6682657563000917,0.0336731370210647,-0.1710066646007821
2024-12-04 21:56:13.132413000,3.132412841796875,-0.672519322091341,0.0068163289513438,-0.199365547796525
2024-12-04 21:56:13.142447000,3.142447021484375,-0.689981329023838,0.0217704447161406,-0.1649966470636427
2024-12-04 21:56:13.152482000,3.15248193359375,-0.7527040349185466,0.115730950243771,-0.1188748377600684
2024-12-04 21:56:13.162517000,3.16251708984375,-0.8425801206767558,0.1712885137494653,-0.233693787725456
2024-12-04 21:56:13.172552200,3.17255224609375,-0.9417413366526364,0.1237198301058262,-0.4502733955753967
2024-12-04 21:56:13.182587000,3.1825869140625,-0.9078314682662486,0.0895185044921934,-0.5571531135067344
2024-12-04 21:56:13.192621800,3.192621826171875,-0.7594500020474195,0.128294152284041,-0.4786634410943836
2024-12-04 21:56:13.202657000,3.202656982421875,-0.580481089863181,0.1693097610224038,-0.4067917255170643
2024-12-04 21:56:13.212692000,3.21269189453125,-0.4577864380866289,0.1801532996632158,-0.3218190842935815
2024-12-04 21:56:13.222727200,3.22272705078125,-0.464884287393093,0.186307438378781,-0.1851140638757497
2024-12-04 21:56:13.232762000,3.23276220703125,-0.5937345391899347,0.2373920942541211,0.025823062841501
2024-12-04 21:56:13.242796000,3.242796142578125,-0.8268342700123786,0.3378879198346287,0.1925061834210529
2024-12-04 21:56:13.252831000,3.2528310546875,-1.172096737203002,0.4109695226583629,0.2089862666441127
2024-12-04 21:56:13.262866000,3.262865966796875,-1.5071715723782777,0.4328015613686293,0.0764289039576426
2024-12-04 21:56:13.272901000,3.272901123046875,-1.7132658073753118,0.4635900828640907,-0.1247367520634085
2024-12-04 21:56:13.282936000,3.28293603515625,-1.7096517085313796,0.5962224835481494,-0.2258427271652035
2024-12-04 21:56:13.292971000,3.292970947265625,-1.535336175110936,0.8820924852453171,-0.1733562416679225
2024-12-04 21:56:13.303006000,3.303005859375,-1.3415215759724377,1.20416704213731,-0.1358983619437553
2024-12-04 21:56:13.313041000,3.313041015625,-1.294261812147498,1.4650997325852513,-0.1281108681390061
2024-12-04 21:56:13.323076000,3.323076171875,-1.4739970325291156,1.6261913350343704,-0.0926406551007181
2024-12-04 21:56:13.333111000,3.333111083984375,-1.857680123528838,1.7319788372822105,-0.0781922969009727
2024-12-04 21:56:13.343145200,3.343145263671875,-2.2737281915605068,1.7141158483333885,-0.1953270860606804
2024-12-04 21:56:13.353180000,3.353179931640625,-2.535231594568491,1.5500879001714287,-0.4264531421899795
2024-12-04 21:56:13.363214800,3.36321484375,-2.4853613559842107,1.3619972316376865,-0.6579803629986941
2024-12-04 21:56:13.373250000,3.37325,-2.12606977891922,1.150779808408022,-0.8785030824512243
2024-12-04 21:56:13.383285000,3.383284912109375,-1.4067086261540651,0.9431352021638304,-0.9984743006132544
2024-12-04 21:56:13.393320200,3.3933203125,-0.5835018989890813,0.7487900763452052,-0.9829210499115288
2024-12-04 21:56:13.403355100,3.403355224609375,0.2072755537360906,0.5826766271460802,-0.8918309121884405
2024-12-04 21:56:13.413389800,3.413389892578125,0.855731863194704,0.4180380728051066,-0.8051486540354788
2024-12-04 21:56:13.423425000,3.423425048828125,1.2962392497003077,0.2163145271729677,-0.8460669398792088
2024-12-04 21:56:13.433460000,3.4334599609375,1.553869026145339,0.0620317279558628,-0.8552281514562666
2024-12-04 21:56:13.443495000,3.443494873046875,1.6603057860821484,0.0262996856436133,-0.7928750095263123
2024-12-04 21:56:13.453529000,3.453529052734375,1.6532506068736317,0.0529340831343084,-0.6724832278646529
2024-12-04 21:56:13.463564000,3.46356396484375,1.5393448262304066,0.0866364462498575,-0.5557318485319614
2024-12-04 21:56:13.473599000,3.473598876953125,1.4135668214857575,0.0620969021465629,-0.5114247970327734
2024-12-04 21:56:13.483634000,3.483634033203125,1.2753642194539307,-0.0170066643804311,-0.5729042248681188
2024-12-04 21:56:13.493669000,3.493669189453125,1.1751742449522018,-0.1144919099681079,-0.6341594885587691
2024-12-04 21:56:13.503704000,3.5037041015625,1.1303829170674085,-0.1945556998293846,-0.6336341495104134
2024-12-04 21:56:13.513739000,3.513739013671875,1.1004489665746688,-0.2575215668302029,-0.5399937062500044
2024-12-04 21:56:13.523774000,3.52377392578125,1.093201479664445,-0.3095936263076961,-0.3911993118487298
2024-12-04 21:56:13.533809000,3.533808837890625,1.076124672657251,-0.3909006211631,-0.2356774358233437
2024-12-04 21:56:13.543844000,3.543843994140625,1.0276415045171976,-0.4962471747104078,-0.0888973403865471
2024-12-04 21:56:13.553878000,3.5538779296875,0.96887075111866,-0.5597039670333266,0.0269658214021474
2024-12-04 21:56:13.563913200,3.563913330078125,0.8773568350255488,-0.6058264704566448,0.0927948227491229
2024-12-04 21:56:13.573948000,3.573947998046875,0.7492138547152281,-0.6156988259777426,0.1112642896911129
2024-12-04 21:56:13.583982800,3.58398291015625,0.5746534066230058,-0.6203644066359847,0.0229131119452416
2024-12-04 21:56:13.594018000,3.59401806640625,0.4017319579094648,-0.5519370593588799,-0.1277853625116869
2024-12-04 21:56:13.604053000,3.604052978515625,0.2469084759443998,-0.437001205015555,-0.2094605330923572
2024-12-04 21:56:13.614088000,3.614087890625,0.1262877078324556,-0.3005138824690133,-0.2417371377211064
2024-12-04 21:56:13.624123100,3.624123046875,0.0554226120144128,-0.2240598806027323,-0.2672919415478594
2024-12-04 21:56:13.634158000,3.634157958984375,0.0181055655330419,-0.2094623962558806,-0.2799796467506326
2024-12-04 21:56:13.644193000,3.644193115234375,0.0334457580059766,-0.2304801229085773,-0.2187315069205127
2024-12-04 21:56:13.654228000,3.65422802734375,0.0909989523082971,-0.2622561941366642,-0.1572606459841132
2024-12-04 21:56:13.664262100,3.66426220703125,0.1323082832962274,-0.325017770737037,-0.1333140628052875
2024-12-04 21:56:13.674297000,3.674297119140625,0.1640951681792736,-0.3945673269771039,-0.0764007007764652
2024-12-04 21:56:13.684332000,3.68433203125,0.2386006663262844,-0.4494931684505194,-0.0022839644850231
2024-12-04 21:56:13.694367000,3.694366943359375,0.3987105642616748,-0.4974870187036693,0.0799905054293572
2024-12-04 21:56:13.704402000,3.70440185546875,0.6050000295698642,-0.5825152991045266,0.1594947799780406
2024-12-04 21:56:13.714437000,3.71443701171875,0.71241352558434,-0.642761678013578,0.1611536531009711
2024-12-04 21:56:13.724472000,3.72447216796875,0.7595867801696061,-0.6537973782256246,0.1756176289949566
2024-12-04 21:56:13.734507000,3.734507080078125,0.7030828026592731,-0.6363789181739091,0.071097735530138
2024-12-04 21:56:13.744542200,3.744542236328125,0.5589268451809882,-0.685591277371347,-0.0937642066373955
2024-12-04 21:56:13.754578000,3.754577880859375,0.4368430187791585,-0.6517609770271927,-0.0737437976260902
2024-12-04 21:56:13.764611800,3.76461181640625,0.3298182298213243,-0.5790586558446288,0.079083957644226
2024-12-04 21:56:13.774646800,3.774646728515625,0.347976402324438,-0.53355494190678,0.2066891504165716
2024-12-04 21:56:13.784681700,3.784681640625,0.296314019626379,-0.5227266008350998,0.2926756631240249
2024-12-04 21:56:13.794717000,3.794717041015625,0.091474753126502,-0.5282171610753983,0.3472003399180248
2024-12-04 21:56:13.804752000,3.804751953125,-0.2196557273596525,-0.571947435599938,0.351910673033446
2024-12-04 21:56:13.814786800,3.814786865234375,-0.4071165735572576,-0.5861631540875881,0.3375392890600487
2024-12-04 21:56:13.824822000,3.824822021484375,-0.48598318952322,-0.5369127279020846,0.3736501015568151
2024-12-04 21:56:13.834856700,3.834856689453125,-0.4619476494193076,-0.5018509860668331,0.4094312802404165
2024-12-04 21:56:13.844892000,3.844891845703125,-0.3962976579010486,-0.3920733182042837,0.5156618866132572
2024-12-04 21:56:13.854926800,3.8549267578125,-0.3674234455943107,-0.2902946862716227,0.6113672265142202
2024-12-04 21:56:13.864961800,3.8649619140625,-0.4303507341504097,-0.2002954855903983,0.5433246407710015
2024-12-04 21:56:13.874996000,3.874995849609375,-0.4936065240085124,-0.1710279631171375,0.376638506250456
2024-12-04 21:56:13.885030700,3.88503076171875,-0.4962462248623371,-0.0866843770448118,0.1926212246354669
2024-12-04 21:56:13.895065900,3.89506591796875,-0.4219511545956134,0.0895051335539668,0.1194062594893388
2024-12-04 21:56:13.905100800,3.905100830078125,-0.2063344734936952,0.2107259133856743,0.1715364606285467
2024-12-04 21:56:13.915135700,3.9151357421875,-0.000197568398714,0.2089030818726867,0.174470979710482
2024-12-04 21:56:13.925171000,3.9251708984375,0.1670598632037639,0.168368534649536,0.1201383914224803
2024-12-04 21:56:13.935206000,3.935205810546875,0.2731727980136871,0.1729020133607089,0.0029607129691168
2024-12-04 21:56:13.945240800,3.94524072265625,0.336773455786705,0.2171859214463271,-0.1361021774201654
2024-12-04 21:56:13.955275800,3.95527587890625,0.348709392774105,0.2386284493823535,-0.2698085640112869
2024-12-04 21:56:13.965310700,3.965310791015625,-0.0482715712159872,0.40688243600782,-0.2970008328467607
2024-12-04 21:56:13.975345000,3.975344970703125,-0.0474257680416107,0.4223850159682333,-0.280104551771935
2024-12-04 21:56:13.985379800,3.9853798828125,-0.5225210683256387,0.4976180246721953,-0.1626398182718083
2024-12-04 21:56:13.995414800,3.995414794921875,-0.7954349231421947,0.2733596623552963,-0.2106273483820259
2024-12-04 21:56:14.005449700,4.00544970703125,-1.0963707573503254,0.1886358265274204,0.0175591654303483
2024-12-04 21:56:14.015485000,4.01548486328125,-1.2207809808731078,0.0542482344727963,0.193473494083248
2024-12-04 21:56:14.025518800,4.025518798828125,-1.2959276995331048,-0.0503585518241859,0.2587641873024404
2024-12-04 21:56:14.035554000,4.035553955078125,-1.2729027977764606,-0.0505574171308428,0.3054972603721544
2024-12-04 21:56:14.045588700,4.045588623046875,-1.264469900473952,0.0379375895325094,0.2185358930168673
2024-12-04 21:56:14.055623700,4.055623779296875,-1.2987906877487898,0.2268533472461625,0.0075309434941038
2024-12-04 21:56:14.065659000,4.065658935546875,-1.1876572944283486,0.7251575640842318,-0.2193782255925238
2024-12-04 21:56:14.075693800,4.07569384765625,-0.9405565107822418,1.046560651455447,-0.5261724669726565
2024-12-04 21:56:14.085728800,4.085728759765625,-0.7969780609309672,0.5148980261012911,-0.5601737399695441
2024-12-04 21:56:14.095764000,4.095763916015625,-1.0061585715055466,0.3463010164581239,-0.6174400436218828
2024-12-04 21:56:14.105799000,4.105798828125,-1.254917643752694,0.2627310451067984,-0.4448807062190025
2024-12-04 21:56:14.115833900,4.115833740234375,-1.4854858102709054,0.3676428239660337,0.00123051904249
2024-12-04 21:56:14.125868800,4.125868896484375,-1.7317793691873549,0.6633676820602268,0.3883354103175923
2024-12-04 21:56:14.135903000,4.135903076171875,-1.9587626629561183,0.8746502064153552,0.5974732873268425
2024-12-04 21:56:14.145938000,4.14593798828125,-2.19876735086143,0.9287853359024972,0.4904853963132947
2024-12-04 21:56:14.155972900,4.155972900390625,-2.1039123076468704,0.9628622314188628,0.1977705336900427
2024-12-04 21:56:14.166007800,4.1660078125,-1.7423101155519485,0.8420205140326171,-0.0276331444707699
2024-12-04 21:56:14.176042800,4.176042724609375,-1.398059455752373,0.7021501979842781,-0.119684619772993
2024-12-04 21:56:14.186078000,4.186077880859375,-1.13343879750669,0.7639703290160745,-0.1634433166744187
2024-12-04 21:56:14.196113000,4.19611279296875,-0.8820382708400487,0.8544375856004655,-0.22710407060422
2024-12-04 21:56:14.206147800,4.20614794921875,-0.1755851149648427,0.719300216358155,-0.4839702057329937
2024-12-04 21:56:14.216183000,4.21618310546875,0.2910755344510078,0.5916153916114941,-0.4084897981392219
2024-12-04 21:56:14.226217700,4.2262177734375,0.7306991238594055,0.5132736763024702,-0.2068886367777362
2024-12-04 21:56:14.236252700,4.236252685546875,1.0109434676945208,0.5506587099861353,-0.0217950494344346
2024-12-04 21:56:14.246288000,4.246287841796875,1.211276654946804,0.7897805506423116,0.0965969184458255
2024-12-04 21:56:14.256322800,4.25632275390625,1.481980432498455,0.918430822887644,0.122250305542536
2024-12-04 21:56:14.266358000,4.26635791015625,1.9870862556427715,0.9382445805780588,0.0822094783867709
2024-12-04 21:56:14.276393000,4.27639306640625,2.435888592284918,1.091382082217559,-0.108704558738321
2024-12-04 21:56:14.286427000,4.286427001953125,2.796369086873532,0.7503272227846085,-0.270924215369299
2024-12-04 21:56:14.296461800,4.2964619140625,3.2132571128606795,0.4053932568959891,-0.3608772388212382
2024-12-04 21:56:14.306496800,4.306496826171875,3.397874844586849,0.1848872328499332,-0.3980011738833039
2024-12-04 21:56:14.316532000,4.316531982421875,3.553502044150233,0.1348528897451237,-0.3923783655654639
2024-12-04 21:56:14.326567000,4.32656689453125,3.705497024691105,0.1447969222629442,-0.2289559090159833
2024-12-04 21:56:14.336601900,4.336601806640625,3.740848908579349,0.0663349050424993,0.0766792254569009
2024-12-04 21:56:14.346636800,4.34663671875,2.2309914581179617,-0.4129136424634605,2.882581389427185
2024-12-04 21:56:14.356671700,4.356671630859375,-1.5750018305450677,-2.1346080362923443,8.078762377554177
2024-12-04 21:56:14.366707000,4.36670703125,-0.4511199659347534,-4.264183339114487,7.870514763915538
2024-12-04 21:56:14.376742000,4.376741943359375,-0.7804764234632253,-3.182913412523269,5.164259078687429
2024-12-04 21:56:14.386776800,4.38677685546875,-0.5008277074337005,-0.8081737009450792,1.0609511419881137
2024-12-04 21:56:14.396812000,4.39681201171875,-0.9887170228391884,0.6344727922916412,-1.1325905101142824
2024-12-04 21:56:14.406845700,4.406845703125,-1.509183496722579,1.5293620691373944,-2.113314196112007
2024-12-04 21:56:14.416881000,4.416880859375,-1.8162568107724189,1.4737342899397017,-2.2668223576948043
2024-12-04 21:56:14.426915800,4.426915771484375,-2.2321464733719822,0.6647394088048487,-1.7121210212543605
2024-12-04 21:56:14.436951000,4.436950927734375,-2.412224223580956,-0.0747879683502018,-1.118136964282766
2024-12-04 21:56:14.446986000,4.446986083984375,-1.71826756118536,-0.3855434049788862,-1.306559568184614
2024-12-04 21:56:14.457020700,4.457020751953125,-1.7408417965650558,-0.3047492550164461,-0.8674684051524847
2024-12-04 21:56:14.467055900,4.467055908203125,-1.1156330917030572,-0.3143336969742551,-0.5125950829211622
2024-12-04 21:56:14.477090800,4.4770908203125,-0.1847632776767015,-0.3309572437886148,-0.3034837651252746
2024-12-04 21:56:14.487125800,4.487125732421875,0.4319838883101939,-0.3922206907857209,0.1165242925785481
2024-12-04 21:56:14.497161000,4.497160888671875,0.9155559250384568,-0.4574501188043505,0.4427371913842857
2024-12-04 21:56:14.507196000,4.50719580078125,1.512846110883355,-0.5243315883463249,0.5184015041776001
2024-12-04 21:56:14.517230800,4.51723095703125,2.782966584464908,-0.5014441588316112,0.0840215145111084
2024-12-04 21:56:14.527265800,4.527265869140625,4.277112671053409,-0.5079493029419332,-0.1585761124968528
2024-12-04 21:56:14.537300000,4.537300048828125,4.855466101238132,-0.9883119491696356,-0.292089679929614
2024-12-04 21:56:14.547335000,4.5473349609375,3.683937519311905,-1.1473252109747378,-0.7578299265649169
2024-12-04 21:56:14.557369900,4.557369873046875,-0.9569663783133028,-1.70235862891376,-0.0490480354811996
2024-12-04 21:56:14.567404800,4.56740478515625,-0.201112939453125,-2.056369927488267,-1.290179219008982
2024-12-04 21:56:14.577439700,4.577439697265625,0.8611866214692592,-1.0422902806598693,-2.0785916961684823
2024-12-04 21:56:14.587475000,4.587474853515625,-0.3631219490081072,-0.0940911461699754,-1.675844715997577
2024-12-04 21:56:14.597510000,4.597510009765625,-0.9534224220961331,0.0470830190185457,-1.6186977644085885
2024-12-04 21:56:14.607544800,4.607544921875,-1.1904694292396307,-0.084085848451592,-1.2847341053456067
2024-12-04 21:56:14.617580000,4.617580078125,-1.024831707793474,-0.2014855356251821,-0.5038779618497937
2024-12-04 21:56:14.627614700,4.62761474609375,-0.7858025869220495,-0.3586762216456234,0.0399835622768849
2024-12-04 21:56:14.637649700,4.637649658203125,-0.6948439666241407,-0.6000802184222266,0.1241618017196655
2024-12-04 21:56:14.647684900,4.647684814453125,-0.5863742395550012,-0.7492636121410876,0.0719653121449053
2024-12-04 21:56:14.657718800,4.65771875,-0.4833803135484457,-0.7127563476726413,0.0460300758995115
2024-12-04 21:56:14.667754000,4.66775390625,-0.4383265353351831,-0.4944605470219627,-0.0313932824555784
2024-12-04 21:56:14.677788700,4.67778857421875,-0.4578858068078756,-0.2025089969214051,-0.0836504892416298
2024-12-04 21:56:14.687824000,4.687823974609375,-0.4995031808316707,-0.0028308760443702,-0.0248232564155012
2024-12-04 21:56:14.697858800,4.69785888671875,-0.6132780285716056,0.0159394370077177,0.0392590473946183
2024-12-04 21:56:14.707893800,4.707893798828125,-0.7456541164070367,-0.0013412950737401,0.007009440370649
2024-12-04 21:56:14.717929000,4.717928955078125,-0.8389145839065313,0.042522944561392,-0.0586618131313472
2024-12-04 21:56:14.727964000,4.7279638671875,-0.9444014957726,0.151977810210362,-0.0634421792756766
2024-12-04 21:56:14.737998800,4.737998779296875,-1.0743091476678848,0.2520426970276981,0.041655806338042
2024-12-04 21:56:14.748033800,4.74803369140625,-1.1758318320780992,0.3558528347879648,0.2007987589374184
2024-12-04 21:56:14.758068500,4.758068359375,-1.1942355037748813,0.5179307083280756,0.3464407902549952
2024-12-04 21:56:14.768103400,4.768103515625,-1.1580875010728835,0.6881959069117903,0.4609213020462542
2024-12-04 21:56:14.778138400,4.778138427734375,-1.0056085364073517,0.892688844192028,0.5167637469079345
2024-12-04 21:56:14.788172500,4.788172607421875,-0.3463812420874834,0.9682721276383848,0.6250793793939053
2024-12-04 21:56:14.798207500,4.79820751953125,-0.6009679975748061,1.1856680933725088,0.4719163049217313
2024-12-04 21:56:14.808242400,4.808242431640625,-0.4595201300114393,1.3276374275267124,0.4152802985295653
2024-12-04 21:56:14.818277400,4.81827734375,-0.2298211475431918,1.2462930232703684,0.4425627846654504
2024-12-04 21:56:14.828312300,4.828312255859375,-0.2176081471800804,1.254583151101321,0.5373108603741973
2024-12-04 21:56:14.838347500,4.838347412109375,-0.2944803744584321,1.3111394433207808,0.5863398258287459
2024-12-04 21:56:14.848382500,4.848382568359375,-0.4095674738407134,1.3599177950151264,0.6244821441531181
2024-12-04 21:56:14.858417400,4.85841748046875,-0.6128168408006429,1.4455769937306642,0.6475656442292034
2024-12-04 21:56:14.868452600,4.86845263671875,-0.8329524606317281,1.5429209311515093,0.5645538182172924
2024-12-04 21:56:14.878487600,4.878487548828125,-0.9561007013946772,1.583823873295635,0.422192233342491
2024-12-04 21:56:14.888522500,4.8885224609375,-0.968119055968523,1.5020698653250932,0.3108012119991705
2024-12-04 21:56:14.898557400,4.898557373046875,-0.8606377554148436,1.3291359955213964,0.0793257213776931
2024-12-04 21:56:14.908592400,4.90859228515625,-0.9027917205333708,1.1162475703395902,-0.2747812926562503
2024-12-04 21:56:14.918626600,4.91862646484375,-1.0750514904677868,0.942617315769568,-0.6136771108917891
2024-12-04 21:56:14.928661500,4.92866162109375,-1.277452716165781,0.8377935439873486,-0.8126002121504395
2024-12-04 21:56:14.938696400,4.938696533203125,-1.469851018765569,0.8302878445323556,-0.8804192913360893
2024-12-04 21:56:14.948731400,4.9487314453125,-1.5965134051293133,0.882832343827188,-0.902269450224936
2024-12-04 21:56:14.958766300,4.958766357421875,-1.5606459729343651,0.9632427551690488,-0.8674503580391406
2024-12-04 21:56:14.968801500,4.968801513671875,-1.3967343446284533,1.086200076469779,-0.745001936108619
2024-12-04 21:56:14.978836500,4.97883642578125,-1.2087836690872906,1.1656371858000754,-0.6155399090889841
2024-12-04 21:56:14.988871700,4.98887158203125,-0.97791564283967,1.1172842199109494,-0.5055657322736457
2024-12-04 21:56:14.998906400,4.99890625,-0.6516431228011846,0.9884508461836724,-0.3967782810248434
2024-12-04 21:56:15.008941300,5.00894140625,-0.3226484843224287,0.8614972948536276,-0.3511619370253756
2024-12-04 21:56:15.018976500,5.0189765625,-0.041996144208312,0.756971848430857,-0.3637666035871952
2024-12-04 21:56:15.029011500,5.029011474609375,0.2256207732439041,0.6659186817172914,-0.4530825712446123
2024-12-04 21:56:15.039046400,5.03904638671875,0.4646528167247772,0.5497108346767723,-0.5098691650886088
2024-12-04 21:56:15.049080300,5.049080322265625,0.6100351011276245,0.4245325493909418,-0.6079425127625465
2024-12-04 21:56:15.059115500,5.059115478515625,0.7418366039454937,0.3328597529416903,-0.7182720423541963
2024-12-04 21:56:15.069150500,5.069150390625,0.9081278208643198,0.269874103528168,-0.7503788799066096
2024-12-04 21:56:15.079185400,5.079185302734375,1.0925327866226433,0.2367495585668832,-0.6875698109026998
2024-12-04 21:56:15.089220600,5.089220703125,1.239682665219903,0.2145340734969824,-0.5013767196185887
2024-12-04 21:56:15.099255600,5.099255615234375,1.2982225324720142,0.2381934006996452,-0.2955218098027631
2024-12-04 21:56:15.109290200,5.109290283203125,1.2538245878189802,0.2827674691045657,-0.1223296178564429
2024-12-04 21:56:15.119325400,5.119325439453125,1.0904396137356758,0.2219849374921992,-0.0453250420358497
2024-12-04 21:56:15.129360400,5.1293603515625,0.8948954143255948,0.0845190522370859,-0.0215216575868427
2024-12-04 21:56:15.139395600,5.1393955078125,0.6989134080201387,-0.0580470057012513,0.0044643041987903
2024-12-04 21:56:15.149430500,5.149430419921875,0.556090744972229,-0.1771886777039617,-0.0445620857061818
2024-12-04 21:56:15.159465500,5.159465576171875,0.494631190881133,-0.2569298480147495,-0.1150392781851813
2024-12-04 21:56:15.169500700,5.169500732421875,0.5314133998334407,-0.2880986740646883,-0.1716087221471592
2024-12-04 21:56:15.179535400,5.179535400390625,0.5591320123642682,-0.2971999356154352,-0.1240979609695263
2024-12-04 21:56:15.189569500,5.189569580078125,0.572338699939847,-0.3190150597235188,-0.0610433379730209
2024-12-04 21:56:15.199604500,5.1996044921875,0.5638724848896265,-0.3307136442910879,-0.0351231714325957
2024-12-04 21:56:15.209639400,5.209639404296875,0.5587625945299863,-0.2931748082851991,0.0127090402517467
2024-12-04 21:56:15.219674600,5.219674560546875,0.5345142884582281,-0.2687128594627603,0.130531610746216
2024-12-04 21:56:15.229709300,5.229709228515625,0.4955009594529866,-0.2897128312630578,0.3125957672657445
2024-12-04 21:56:15.239744500,5.23974462890625,0.4564870459258556,-0.3166805888939649,0.4523593350039794
2024-12-04 21:56:15.249779500,5.249779541015625,0.4159972146272659,-0.3191699214916676,0.4495013152243569
2024-12-04 21:56:15.259814400,5.259814453125,0.4393015178471803,-0.2888849656041711,0.3641518400451168
2024-12-04 21:56:15.269849600,5.269849609375,0.5253010544329881,-0.3296720262836665,0.2723654271535575
2024-12-04 21:56:15.279884500,5.279884521484375,0.6244143396139145,-0.3926036256887018,0.1647611212747171
2024-12-04 21:56:15.289919500,5.28991943359375,0.655616702607274,-0.3779511232189834,0.0785415852626785
2024-12-04 21:56:15.299954400,5.299954345703125,0.6170306591033935,-0.3421493766713887,0.0221122438911348
2024-12-04 21:56:15.309989400,5.3099892578125,0.6253372996777296,-0.2985381984818727,0.0208340406488627
2024-12-04 21:56:15.320024600,5.320024658203125,0.6232908885419368,-0.2056639538209885,-0.0133008321324363
2024-12-04 21:56:15.330058500,5.33005859375,0.6101905839502811,-0.022694208497554,-0.0407400797326117
2024-12-04 21:56:15.340093400,5.340093505859375,0.6428934146344661,0.1902116792757064,-0.0148826579637825
2024-12-04 21:56:15.350128400,5.35012841796875,0.6769663646280765,0.3265909383378922,0.0085012132983654
2024-12-04 21:56:15.360163300,5.360163330078125,0.7009697560280561,0.3987868443682789,-0.0763173698745667
2024-12-04 21:56:15.370198500,5.370198486328125,0.6862555864989757,0.3395269922785461,-0.1716610003236681
2024-12-04 21:56:15.380233500,5.3802333984375,0.6293465353190899,0.1389094351269304,-0.1857354837097227
2024-12-04 21:56:15.390268700,5.3902685546875,0.6188713185340166,-0.0913768457099795,-0.2015042768582701
2024-12-04 21:56:15.400303400,5.400303466796875,0.7173667640775442,-0.0972752560988068,-0.1174989097643643
2024-12-04 21:56:15.410338300,5.41033837890625,0.775174809923768,0.1547420872919261,0.1416528886161744
2024-12-04 21:56:15.420373500,5.42037353515625,0.7309557289689779,-0.2862527904696762,0.0691857644289731
2024-12-04 21:56:15.430408400,5.430408447265625,0.6996399687290191,-0.8689277371153235,-0.0724893360190093
2024-12-04 21:56:15.440443400,5.440443359375,0.5394552519917488,-0.9077715547725558,-0.0635312457986176
2024-12-04 21:56:15.450478600,5.450478515625,0.4022299705594778,-0.7748324262268841,-0.2317396945156156
2024-12-04 21:56:15.460513500,5.460513427734375,0.08717033393085,-0.4152519492179155,-0.4924329501844942
2024-12-04 21:56:15.470547500,5.47054736328125,-0.1636602838933467,0.0383585183583199,-0.6207955645948648
2024-12-04 21:56:15.480582400,5.48058251953125,-0.1582166315346956,0.3136151369087397,-0.6406625868424772
2024-12-04 21:56:15.490617600,5.49061767578125,0.0115986678570508,0.320779913971573,-0.5802301838420331
2024-12-04 21:56:15.500652500,5.500652587890625,0.3033317894339561,0.0711082569241523,-0.5125529242798685
2024-12-04 21:56:15.510687500,5.5106875,0.6817676274299621,-0.3127300246372819,-0.3657410454653203
2024-12-04 21:56:15.520722400,5.520722412109375,0.9926584539413452,-0.7345192666694521,-0.0864404122211039
2024-12-04 21:56:15.530757400,5.53075732421875,1.1288578994572165,-1.002332583476603,0.1640774863921106
2024-12-04 21:56:15.540792600,5.54079248046875,1.5210831933528184,-1.1248492483377457,0.4523281726807355
2024-12-04 21:56:15.550827500,5.55082763671875,0.6206675543010235,-0.8870083143375813,0.5482628278255463
2024-12-04 21:56:15.560862500,5.560862548828125,-0.318000366255641,-0.4016556778028607,0.2996238748267292
2024-12-04 21:56:15.570897700,5.570897705078125,-0.6655903996109962,-0.0697336075700819,-0.0117900987759232
2024-12-04 21:56:15.580932400,5.580932373046875,-0.8724719855934381,0.0490434323713183,-0.0381301164299249
2024-12-04 21:56:15.590967300,5.59096728515625,-1.0545698434531687,0.0959108358778059,0.0463119615808129
2024-12-04 21:56:15.601002500,5.60100244140625,-1.2679133189260958,0.2286205395817756,0.0227703424736857
2024-12-04 21:56:15.611037400,5.611037353515625,-1.482166894981265,0.4045087291464209,-0.0668919544033706
2024-12-04 21:56:15.621071600,5.621071533203125,-1.598528252083063,0.4833271220564842,-0.0907366481103003
2024-12-04 21:56:15.631106300,5.631106201171875,-1.623433560758829,0.4382113845229148,0.0577748742289841
2024-12-04 21:56:15.641141500,5.6411416015625,-1.654864471811056,0.330496713604778,0.212421246061474
2024-12-04 21:56:15.651176400,5.651176513671875,-1.6820295421123503,0.2776509663410484,0.2291825573787093
2024-12-04 21:56:15.661211400,5.66121142578125,-1.6139964548498391,0.3263702813245356,0.230869925943762
2024-12-04 21:56:15.671246600,5.67124658203125,-1.548628202882409,0.4433471399761736,0.2302764900952577
2024-12-04 21:56:15.681281500,5.681281494140625,-1.51360131316483,0.5511144909296184,0.2638116799503565
2024-12-04 21:56:15.691316500,5.69131640625,-1.458990602055192,0.5966980651706457,0.4300678255558013
2024-12-04 21:56:15.701351400,5.701351318359375,-1.3928601335436106,0.6108969786539673,0.616954232866317
2024-12-04 21:56:15.711386400,5.711386474609375,-1.2744880211412906,0.6102790659513324,0.7462314779035747
2024-12-04 21:56:15.721421600,5.721421630859375,-1.2327362070828676,0.5870066191744059,0.8112947555750608
2024-12-04 21:56:15.731456500,5.73145654296875,-1.3171049275964497,0.5086692147143185,0.8176694051735103
2024-12-04 21:56:15.741491500,5.741491455078125,-1.40682962218523,0.4141390926051884,0.8132062882848083
2024-12-04 21:56:15.751526400,5.7515263671875,-1.4174264195233583,0.3836012579351663,0.8035045400902628
2024-12-04 21:56:15.761560000,5.76156005859375,-1.3492869492769242,0.328458193514496,0.7546661287717521
2024-12-04 21:56:15.771594800,5.7715947265625,-1.2113292619168758,0.2695554842993617,0.6681399379633367
2024-12-04 21:56:15.781629700,5.781629638671875,-1.0117074378043414,0.249695330183953,0.6105807523116469
2024-12-04 21:56:15.791665000,5.791664794921875,-0.7536521294236183,0.2281469307206571,0.5709643428467214
2024-12-04 21:56:15.801699800,5.801699951171875,-0.5554746589004993,0.18323438760899,0.5523150258257985
2024-12-04 21:56:15.811735000,5.811735107421875,-0.347739670959115,0.1323274263881146,0.531602346534282
2024-12-04 21:56:15.821770000,5.82177001953125,-0.1331061556756496,-0.0006018383506685,0.5062080852977932
2024-12-04 21:56:15.831804700,5.8318046875,0.0718289724141359,-0.1847283524937927,0.4850258887983858
2024-12-04 21:56:15.841839900,5.84183984375,0.2338929270267486,-0.355813379560411,0.3892769654840231
2024-12-04 21:56:15.851874800,5.851874755859375,0.4038923508137464,-0.4694786294460296,0.2330225739330053
2024-12-04 21:56:15.861909800,5.86190966796875,0.6303244404405355,-0.5040335177376866,0.0533200867772102
2024-12-04 21:56:15.871945000,5.871945068359375,0.8393073826164007,-0.5238721906736493,-0.1028463342294096
2024-12-04 21:56:15.881980000,5.88197998046875,1.003731052097678,-0.5390516396269202,-0.203301535538584
2024-12-04 21:56:15.892014800,5.892014892578125,1.1051251416921617,-0.5338967410817742,-0.2615620013274252
2024-12-04 21:56:15.902049800,5.9020498046875,1.1600398041844366,-0.53009756799452,-0.273321120443195
2024-12-04 21:56:15.912084700,5.912084716796875,1.1313789423674343,-0.5097063026770949,-0.2725971900828182
2024-12-04 21:56:15.922120000,5.922119873046875,1.0250637629836796,-0.519573908957839,-0.2163542015962302
2024-12-04 21:56:15.932153900,5.93215380859375,0.8533639650195837,-0.5713129370886832,-0.111957130793482
2024-12-04 21:56:15.942188800,5.942188720703125,0.7004828492939472,-0.6023505379743874,-0.0240992529898881
2024-12-04 21:56:15.952223700,5.9522236328125,0.6237947464108466,-0.5907465363550931,0.0379594360381364
2024-12-04 21:56:15.962258700,5.9622587890625,0.5404074381500482,-0.5593761233184487,0.1142605854302644
2024-12-04 21:56:15.972294000,5.9722939453125,0.501458991074562,-0.5608233264520764,0.1501103358380496
2024-12-04 21:56:15.982328800,5.982328857421875,0.5791922190964222,-0.5801270887937396,0.1226759470760822
2024-12-04 21:56:15.992364000,5.992364013671875,0.7329758366197348,-0.5768896412424743,0.0661494654729962
2024-12-04 21:56:16.002399000,6.00239892578125,0.9160416627287864,-0.5698476137764752,0.0510673394143581
2024-12-04 21:56:16.012433700,6.01243359375,1.043560373660922,-0.5673468830019235,0.0271862592197954
2024-12-04 21:56:16.022468900,6.02246875,1.0952362003624438,-0.5868662608556449,-0.0225936707325279
2024-12-04 21:56:16.032503800,6.03250390625,1.042079779714346,-0.5769883523765951,-0.136232032611221
2024-12-04 21:56:16.042539000,6.0425390625,0.969004606631398,-0.5776102106019855,-0.1983691937029361
2024-12-04 21:56:16.052574000,6.052573974609375,0.8870897090107202,-0.613611206048727,-0.2156308557577431
2024-12-04 21:56:16.062609000,6.06260888671875,0.8119464974820614,-0.6668544281974434,-0.203890733603388
2024-12-04 21:56:16.072643800,6.072643798828125,0.7709943093687296,-0.7089403695810585,-0.1653992365151643
2024-12-04 21:56:16.082678800,6.0826787109375,0.6969231109857559,-0.7262962857905775,-0.1321485626898705
2024-12-04 21:56:16.092713000,6.092712890625,0.6245616391301154,-0.8087550079643726,-0.11874021506235
2024-12-04 21:56:16.102748000,6.102747802734375,0.5854185462653636,-0.931121523765102,-0.0520132419623434
2024-12-04 21:56:16.112782800,6.112782958984375,0.5879056869059801,-0.8871979186255484,-0.0512331975005567
2024-12-04 21:56:16.122817800,6.12281787109375,0.5949550208956003,-0.7480779094878584,-0.1007183822900056
2024-12-04 21:56:16.132852700,6.132852783203125,0.5834253266215325,-0.7181919628553092,-0.1933221394464373
2024-12-04 21:56:16.142888000,6.142887939453125,0.5680787044078112,-0.7208208500541746,-0.2762834773801267
2024-12-04 21:56:16.152923000,6.1529228515625,0.5355465541154146,-0.6577069528847932,-0.3768244572766125
2024-12-04 21:56:16.162957800,6.162957763671875,0.4127881894528865,-0.5016399005994201,-0.5860654658667743
2024-12-04 21:56:16.172993000,6.172992919921875,0.2054553525716066,-0.2134537309143692,-0.7076378356151283
2024-12-04 21:56:16.183027700,6.18302783203125,-0.0302758957982063,-0.0705672453826293,-0.7478697466298937
2024-12-04 21:56:16.193062700,6.193062744140625,-0.1350812551409006,-0.1937739018019288,-0.6463216355174779
2024-12-04 21:56:16.203097900,6.203097900390625,-0.2978045504450798,-0.3331239568358287,0.8179891386471688
2024-12-04 21:56:16.213132800,6.2131328125,0.0656955842256546,-0.4592789781993254,1.158229393761605
2024-12-04 21:56:16.223168000,6.22316796875,-0.4430196615874767,-0.1849773588187992,0.0512494179829955
2024-12-04 21:56:16.233203000,6.233202880859375,-1.07528763731122,0.4592760921224951,0.1472222131811082
2024-12-04 21:56:16.243237600,6.243237548828125,-0.9372235669672488,0.6646862173128872,0.3638280514508485
2024-12-04 21:56:16.253271800,6.253271728515625,-0.8503104226678609,0.5045703645607457,0.4417025876395404
2024-12-04 21:56:16.263306800,6.263306640625,-1.0560340707868336,0.4695324054598808,0.5430984307996929
2024-12-04 21:56:16.273342000,6.273342041015625,-1.336418115353584,0.6308667306236923,0.4291233843125402
2024-12-04 21:56:16.283377000,6.283376953125,-1.6482821708112954,0.8871300410211086,0.3889499254867434
2024-12-04 21:56:16.293411800,6.293411865234375,-1.9398913737475871,1.0869381084207446,0.5102564839057624
2024-12-04 21:56:16.303446800,6.30344677734375,-2.1834867796212434,1.1829633644584563,0.7650492833591997
2024-12-04 21:56:16.313481700,6.313481689453125,-2.323541731521487,1.177101925079152,0.9902180750519036
2024-12-04 21:56:16.323517000,6.323516845703125,-2.3681834218025206,1.2427604652300477,1.0452642549693585
2024-12-04 21:56:16.333551900,6.3335517578125,-2.323357607126236,1.4057514715597033,0.8630728736072778
2024-12-04 21:56:16.343586800,6.3435869140625,-2.1629344054579733,1.6103087062478063,0.5035666308782994
2024-12-04 21:56:16.353622000,6.3536220703125,-1.947453917956352,1.7785785297632215,0.0945430546559393
2024-12-04 21:56:16.363656700,6.36365673828125,-1.6731389641702177,1.910235509543866,-0.1719766421440988
2024-12-04 21:56:16.373692000,6.37369189453125,-1.3224410279273986,1.907704091370105,-0.2207932800222188
2024-12-04 21:56:16.383726800,6.383726806640625,-0.9164467363983392,1.741193971003592,-0.1211868044968694
2024-12-04 21:56:16.393761800,6.39376171875,-0.2516314128130674,1.4543141346767543,0.1582003379870206
2024-12-04 21:56:16.403797000,6.403796875,0.6525847875654697,1.096572271271795,0.475673392432928
2024-12-04 21:56:16.413832000,6.41383203125,1.0266811350524423,0.8474643125217407,0.8608830354128032
2024-12-04 21:56:16.423865900,6.423865966796875,1.252021337789297,0.8250500169441104,0.9353983243014664
2024-12-04 21:56:16.433900800,6.43390087890625,1.3478320742934942,0.926517683231458,0.7539109995555132
2024-12-04 21:56:16.443935700,6.443935791015625,1.2775503313213583,1.0404826467160135,0.5614996913436799
2024-12-04 21:56:16.453971000,6.453970947265625,1.1712392435908316,1.047853394679725,0.3204861186567694
2024-12-04 21:56:16.464006000,6.464005859375,0.9483061019957064,0.9874882847618311,0.0867987241394817
2024-12-04 21:56:16.474040800,6.474040771484375,0.6314122356772423,0.8167168536890298,-0.1749827651575207
2024-12-04 21:56:16.484075800,6.48407568359375,0.2858896562457084,0.6408904773142189,-0.4404434544239193
2024-12-04 21:56:16.494110700,6.49411083984375,-0.1387830322682857,0.5426102088913322,-0.6195397193148732
2024-12-04 21:56:16.504146000,6.50414599609375,-0.5787631800293922,0.4914654933918267,-0.6980496307976544
2024-12-04 21:56:16.514180900,6.514180908203125,-0.9608826749742032,0.4940537563193589,-0.6621835137769579
2024-12-04 21:56:16.524216000,6.524216064453125,-1.2502408841133117,0.5102903861753643,-0.5284663865961134
2024-12-04 21:56:16.534250800,6.534250732421875,-1.4094360052913426,0.4787575856512412,-0.3902298092294484
2024-12-04 21:56:16.544285700,6.54428564453125,-1.4121645534723997,0.5019080865489318,-0.2748837666500359
2024-12-04 21:56:16.554321000,6.55432080078125,-1.2560931172728538,0.5434496553901582,-0.2163716641876846
2024-12-04 21:56:16.564355800,6.56435595703125,-0.9278829071700572,0.5431839536586776,-0.2065254660211503
2024-12-04 21:56:16.574390800,6.574390869140625,-0.5547925218552351,0.5146260042268782,-0.2861916348669678
2024-12-04 21:56:16.584426000,6.584426025390625,-0.1701315257340669,0.4419614212388172,-0.4426998550485819
2024-12-04 21:56:16.594461000,6.5944609375,0.1792488981693983,0.3105197647092864,-0.5845336531896144
2024-12-04 21:56:16.604494800,6.604494873046875,0.4573714275449514,0.1182598841995,-0.6850797476526349
2024-12-04 21:56:16.614529800,6.61452978515625,0.6494780537217855,-0.0382842475457116,-0.7411644768375903
2024-12-04 21:56:16.624565000,6.62456494140625,0.776797442689538,-0.1602186555394902,-0.8027295371297747
2024-12-04 21:56:16.634600000,6.634599853515625,0.8679875336557626,-0.2421786344109102,-0.8781877328917383
2024-12-04 21:56:16.644635000,6.644634765625,0.9214946674376726,-0.292187075889483,-0.9164842919297516
2024-12-04 21:56:16.654669800,6.654669921875,0.9518377832531928,-0.2879260574441403,-0.8781022465653717
2024-12-04 21:56:16.664704800,6.664704833984375,0.9564560907036066,-0.1895989542048424,-0.7882108171075582
2024-12-04 21:56:16.674739700,6.67473974609375,0.9887620310246944,-0.0740458812786266,-0.6853221050411462
2024-12-04 21:56:16.684775000,6.68477490234375,1.0178951865285637,-0.0414895098604261,-0.5628130024319514
2024-12-04 21:56:16.694809900,6.694809814453125,0.9721832366675138,-0.0935770957006141,-0.4303054337039589
2024-12-04 21:56:16.704845000,6.704844970703125,0.8537263685911893,-0.1841173444559797,-0.2854398301189765
2024-12-04 21:56:16.714879700,6.714879638671875,0.714603144583106,-0.263128081600368,-0.1646249276744201
2024-12-04 21:56:16.724914700,6.724914794921875,0.610362433385849,-0.3375008202131837,-0.0905894581919535
2024-12-04 21:56:16.734950000,6.734949951171875,0.5576461577206849,-0.3874201221035793,0.0091013711486011
2024-12-04 21:56:16.744984800,6.74498486328125,0.4656102635800838,-0.3873845028009265,0.0970227426424622
2024-12-04 21:56:16.755020300,6.755020263671875,0.3033937487542629,-0.4360180391971021,0.1290234164066612
2024-12-04 21:56:16.765055500,6.765055419921875,0.1469669232457876,-0.517741944290325,0.1221440321564674
2024-12-04 21:56:16.775090400,6.77509033203125,0.0384773224323987,-0.6442509667232632,0.123912795394659
2024-12-04 21:56:16.785125400,6.78512548828125,0.0376847107499837,-0.7670281822167336,0.1422864372793585
2024-12-04 21:56:16.795159300,6.7951591796875,0.1499959156781435,-0.87236589487046,0.1305428810589015
2024-12-04 21:56:16.805194500,6.805194580078125,0.3330424525648355,-0.9064195556417108,0.0518356203731149
2024-12-04 21:56:16.815229400,6.8152294921875,0.5535837305873632,-0.8498670628145336,-0.0904766089346259
2024-12-04 21:56:16.825264400,6.825264404296875,0.7641665091753006,-0.7558098919793963,-0.2437052959889173
2024-12-04 21:56:16.835299300,6.83529931640625,0.8732657663196325,-0.6513630637507886,-0.3880135214194655
2024-12-04 21:56:16.845334300,6.845334228515625,0.8034504718154668,-0.5258749818634242,-0.5214356842417269
2024-12-04 21:56:16.855369200,6.855369140625,0.6128355455011129,-0.4470634570855647,-0.5903540299061686
2024-12-04 21:56:16.865404400,6.865404296875,0.3833341314315796,-0.4289334146983921,-0.5789253848537802
2024-12-04 21:56:16.875439400,6.875439453125,0.208608263644576,-0.4471646524377167,-0.5333315814796835
2024-12-04 21:56:16.885474600,6.885474609375,0.1055062010884285,-0.4307588765598833,-0.5354265809975565
2024-12-04 21:56:16.895509200,6.89550927734375,0.099662151235342,-0.3721518623556941,-0.57480662442334
2024-12-04 21:56:16.905544200,6.905544189453125,0.2111971110939979,-0.3341656113758683,-0.5880784131243825
2024-12-04 21:56:16.915579400,6.915579345703125,0.3537351119816303,-0.3106988841358572,-0.5819086384482681
2024-12-04 21:56:16.925614300,6.9256142578125,0.4683136773198842,-0.3332472544219345,-0.5466350074280053
2024-12-04 21:56:16.935649300,6.935649169921875,0.5581061764478683,-0.3848454858426004,-0.4974542124126106
2024-12-04 21:56:16.945684500,6.9456845703125,0.6500801112681627,-0.4093234359517693,-0.4313178256168961
2024-12-04 21:56:16.955719200,6.95571923828125,0.6998398752152919,-0.4051849479075521,-0.368689593072608
2024-12-04 21:56:16.965754400,6.96575439453125,0.7415548643946647,-0.396088106803596,-0.3225813373703509
2024-12-04 21:56:16.975789300,6.975789306640625,0.7865659725099802,-0.3895307941146195,-0.2990143646262586
2024-12-04 21:56:16.985823500,6.985823486328125,0.767905111181736,-0.36816622678563,-0.3120337129361927
2024-12-04 21:56:16.995858400,6.9958583984375,0.7308926006048917,-0.3544611612338572,-0.3223977974969893
2024-12-04 21:56:17.005893000,7.00589306640625,0.6972019279271364,-0.3772146256379783,-0.3130686089418828
2024-12-04 21:56:17.015928300,7.01592822265625,0.5712234321743249,-0.3902037980053573,-0.3048051499221473
2024-12-04 21:56:17.025963300,7.02596337890625,0.3809329155087471,-0.399593338445574,-0.2790922511905431
2024-12-04 21:56:17.035998500,7.03599853515625,0.1740267796069383,-0.4269289430081844,-0.2152856225166469
2024-12-04 21:56:17.046033400,7.046033447265625,-0.0373719915390014,-0.4378199009872973,-0.1086152730196714
2024-12-04 21:56:17.056068400,7.056068359375,-0.2570616211682558,-0.3581438683345914,0.0145597826849669
2024-12-04 21:56:17.066103600,7.066103515625,-0.4796767828553914,-0.2170772551737725,0.1266215428967028
2024-12-04 21:56:17.076138200,7.07613818359375,-0.6124217040032148,-0.1103086329340934,0.221206829259172
2024-12-04 21:56:17.086173200,7.086173095703125,-0.6697036801487207,-0.0531119969844818,0.2908937481433153
2024-12-04 21:56:17.096208400,7.09620849609375,-0.7017658748418092,-0.0229081435091793,0.3404815165244043
2024-12-04 21:56:17.106243300,7.106243408203125,-0.7908861737966537,0.0495256629303097,0.3291859963323921
2024-12-04 21:56:17.116278500,7.116278564453125,-0.9251403304636476,0.1670711152501404,0.2842839015495031
2024-12-04 21:56:17.126313500,7.1263134765625,-1.0663982284128666,0.2737741979729384,0.2864703787431121
2024-12-04 21:56:17.136348200,7.13634814453125,-1.27668991509974,0.3315847280371934,0.3214753488898277
2024-12-04 21:56:17.146383400,7.14638330078125,-1.466536195129156,0.3316843159541487,0.3921120427794754
2024-12-04 21:56:17.156418300,7.156418212890625,-1.5689689801216125,0.283001533588767,0.4713892123077065
2024-12-04 21:56:17.166453200,7.166453369140625,-1.5820353824436664,0.2302898610334843,0.487533414639905
2024-12-04 21:56:17.176488400,7.176488525390625,-1.4971961218088865,0.248743655482307,0.3985341847814619
2024-12-04 21:56:17.186522400,7.1865224609375,-1.31316934171319,0.3484834019985049,0.2319808097951114
2024-12-04 21:56:17.196557300,7.196557373046875,-1.077807511177659,0.4658539361428469,0.0973893839977681
2024-12-04 21:56:17.206592300,7.20659228515625,-0.8211042019277811,0.5355845480382442,0.03348850116916
2024-12-04 21:56:17.216627500,7.21662744140625,-0.6395955421328544,0.5904664042394608,0.0725043143924325
2024-12-04 21:56:17.226662400,7.226662353515625,-0.5815414125710725,0.5994602964255958,0.2223129638701677
2024-12-04 21:56:17.236697300,7.236697265625,-0.6247673908352851,0.5866370552096516,0.3562460718892514
2024-12-04 21:56:17.246732300,7.246732177734375,-0.744597885352373,0.5972116407159715,0.4314102531407028
2024-12-04 21:56:17.256767200,7.256767333984375,-0.8891162464022636,0.6281839212805033,0.4564675375077873
2024-12-04 21:56:17.266802400,7.266802490234375,-1.0521990226686,0.6691807522531599,0.4523455622069537
2024-12-04 21:56:17.276837400,7.27683740234375,-1.17758364418149,0.7012072180457413,0.4619293100450187
2024-12-04 21:56:17.286872300,7.286872314453125,-1.241511634212732,0.7299093617212027,0.4721714487265795
2024-12-04 21:56:17.296907500,7.296907470703125,-1.2952256887435911,0.7527347953829914,0.4626107895031571
2024-12-04 21:56:17.306942500,7.3069423828125,-1.322766606619954,0.6839828923266381,0.4919259505104273
2024-12-04 21:56:17.316977200,7.31697705078125,-1.2919406757235523,0.5455852426467463,0.6025044864270835
2024-12-04 21:56:17.327012400,7.327012451171875,-1.1531944683343172,0.4231317426823079,0.6829721078488975
2024-12-04 21:56:17.337047300,7.33704736328125,-0.9091600865215064,0.3534849000802263,0.712295306032151
2024-12-04 21:56:17.347082500,7.34708251953125,-0.5615910959541798,0.3196842276893556,0.7029471935808658
2024-12-04 21:56:17.357117400,7.357117431640625,-0.180758133688569,0.2807783411139622,0.6552369095094501
2024-12-04 21:56:17.367152400,7.36715234375,0.1383434718072414,0.2489859398055821,0.5858339951984584
2024-12-04 21:56:17.377187300,7.377187255859375,0.3290250336170196,0.1807189341893419,0.5108591259740293
2024-12-04 21:56:17.387222300,7.38722216796875,0.4411795866787433,0.051765295083262,0.4647377185292541
2024-12-04 21:56:17.397256400,7.39725634765625,0.4856798226624726,-0.0847501210466027,0.41574009806104
2024-12-04 21:56:17.407291400,7.40729150390625,0.5168699106961488,-0.1642550714487209,0.3298790931630879
2024-12-04 21:56:17.417326300,7.417326416015625,0.5629214677751064,-0.2208973614512011,0.2692529942214489
2024-12-04 21:56:17.427361300,7.427361328125,0.6338736573547125,-0.2573346659559756,0.227205631282553
2024-12-04 21:56:17.437396200,7.437396240234375,0.7386024443298578,-0.2576032537642866,0.1843585693333297
2024-12-04 21:56:17.447431400,7.447431396484375,0.9020347646862268,-0.2849809439029544,0.1413373198609799
2024-12-04 21:56:17.457466400,7.45746630859375,1.0667881045132874,-0.3265357740845531,0.1210450579386204
2024-12-04 21:56:17.467501300,7.467501220703125,1.1373200228542089,-0.3594078238558024,0.1437566559623926
2024-12-04 21:56:17.477536500,7.47753662109375,1.102363860285282,-0.3686586864776909,0.1768888910397887
2024-12-04 21:56:17.487571200,7.4875712890625,1.0435171190410852,-0.3637150925956666,0.1996569684911519
2024-12-04 21:56:17.497606400,7.4976064453125,0.9787871649771928,-0.3838374047785997,0.1782088875971734
2024-12-04 21:56:17.507641300,7.507641357421875,0.9149766638457776,-0.4211540128685533,0.136555711607635
2024-12-04 21:56:17.517676300,7.51767626953125,0.869395062366128,-0.4613515101570635,0.0678095076397061
2024-12-04 21:56:17.527711500,7.52771142578125,0.8450894731491804,-0.4827208267264067,-6.85351915657e-05
2024-12-04 21:56:17.537746400,7.537746337890625,0.7966974904239177,-0.4725696542639285,-0.0098091540917754
2024-12-04 21:56:17.547781400,7.547781494140625,0.7303408119410276,-0.4205343466002494,0.0115874158106744
2024-12-04 21:56:17.557816300,7.55781640625,0.650685675945878,-0.3433220737125724,0.049322322377935
2024-12-04 21:56:17.567851300,7.567851318359375,0.5450812751799822,-0.2818197033930569,0.1007284652926027
2024-12-04 21:56:17.577886500,7.577886474609375,0.4860954177260398,-0.2358596970550715,0.1508245485220104
2024-12-04 21:56:17.587921400,7.58792138671875,0.4624421549379825,-0.1959021460022777,0.1852998687714338
2024-12-04 21:56:17.597956400,7.597956298828125,0.5280529834896326,-0.1617929556515067,0.1853487494144588
2024-12-04 21:56:17.607991600,7.607991455078125,0.6185252815753222,-0.0873234786659479,0.1965369367744773
2024-12-04 21:56:17.618025200,7.618025146484375,0.6809551420032978,0.038194267707318,0.249947624444589
2024-12-04 21:56:17.628060400,7.628060302734375,0.6983756478816271,0.121922790621221,0.3018568945758044
2024-12-04 21:56:17.638095400,7.638095458984375,0.6795201407641172,0.0847137345589697,0.398298184068501
2024-12-04 21:56:17.648130300,7.64813037109375,0.620036270660162,-0.0216966488275676,0.5207856228351593
2024-12-04 21:56:17.658165500,7.65816552734375,0.5380296031028032,-0.1300199531633406,0.5458449530288577
2024-12-04 21:56:17.668200200,7.6682001953125,0.3909527897417545,-0.1927240274228155,0.4989017078071832
2024-12-04 21:56:17.678235400,7.6782353515625,0.2564706695377826,-0.1778353781096637,0.3671121876880526
2024-12-04 21:56:17.688270300,7.688270263671875,0.1775496930360794,-0.0807968533761799,0.2098014189518988
2024-12-04 21:56:17.698305300,7.69830517578125,0.0924012203216552,-0.0092231708973646,0.0491509843990206
2024-12-04 21:56:17.708340500,7.708340576171875,0.0167483057051897,0.0471017967842519,0.0201670281074941
2024-12-04 21:56:17.718375400,7.71837548828125,-0.0067173255562782,0.0819992149032652,0.1274558748289942
2024-12-04 21:56:17.728410400,7.728410400390625,0.1070604447931051,0.1102156939536333,0.2003301185123622
2024-12-04 21:56:17.738445300,7.7384453125,0.3185141609966754,0.1076404366381466,0.1662638905204832
2024-12-04 21:56:17.748480300,7.748480224609375,0.5585176798582077,0.0482721557378768,0.0979477485328912
2024-12-04 21:56:17.758515700,7.758515625,0.6485796435773372,-0.1092750521026551,0.0664670069895684
2024-12-04 21:56:17.768550700,7.768550537109375,0.555092966106534,-0.2701955357685685,0.0539769432507455
2024-12-04 21:56:17.778585600,7.778585693359375,0.400573435524106,-0.3849460966728627,0.0174959092020988
2024-12-04 21:56:17.788620800,7.788620849609375,0.2912748564153909,-0.3988727690860629,-0.0834508750163018
2024-12-04 21:56:17.798655700,7.79865576171875,0.2707856106162071,-0.3204728938490152,-0.245715320637077
2024-12-04 21:56:17.808690700,7.808690673828125,0.2885831331133842,-0.2710064137600362,-0.319344035949558
2024-12-04 21:56:17.818726000,7.818725830078125,0.3000853548586368,-0.2897261656686663,-0.2948877862155437
2024-12-04 21:56:17.828760600,7.828760498046875,0.2509732411652803,-0.3183051944211125,-0.2179232044786214
2024-12-04 21:56:17.838794800,7.838794677734375,0.0750292297601699,-0.3070804744429886,-0.1464499136343598
2024-12-04 21:56:17.848829700,7.84882958984375,-0.2333721180230379,-0.2389770984232425,-0.0466619440622627
2024-12-04 21:56:17.858865000,7.858864990234375,-0.6816402016580104,-0.1301471597395837,0.0987621336556971
2024-12-04 21:56:17.868899800,7.86889990234375,-1.1938438741087911,-0.0431701564237475,0.2364709608212113
2024-12-04 21:56:17.878934500,7.8789345703125,-1.6137234831273557,0.0444964365914464,0.3013097820870578
2024-12-04 21:56:17.888969700,7.8889697265625,-1.9115344633132216,0.22180983665362,0.2299678625375032
2024-12-04 21:56:17.899004700,7.899004638671875,-2.049915929043293,0.4622041083984077,0.0345638022504746
2024-12-04 21:56:17.909039600,7.90903955078125,-2.054488643786311,0.6528298483677208,-0.1528198870576918
2024-12-04 21:56:17.919074800,7.91907470703125,-1.978402598449588,0.7317590081758797,-0.2418807109102606
2024-12-04 21:56:17.929109800,7.92910986328125,-1.8588380613923072,0.7620017323568463,-0.2428789281673729
2024-12-04 21:56:17.939144700,7.939144775390625,-1.70566000854671,0.7221952071473002,-0.1425698573306202
2024-12-04 21:56:17.949179600,7.9491796875,-1.5341536873281,0.6756891842991113,-0.1001892438493669
2024-12-04 21:56:17.959214600,7.959214599609375,-1.2870511501163244,0.6108265437662601,-0.1214570728056132
2024-12-04 21:56:17.969249800,7.969249755859375,-1.021529159116745,0.5628812818951905,-0.1912497170865535
2024-12-04 21:56:17.979284700,7.97928466796875,-0.8269728017002344,0.6225909235790371,-0.3127427379883825
2024-12-04 21:56:17.989319700,7.989319580078125,-0.8365536999940871,0.6919982218042016,-0.4147700109198689
2024-12-04 21:56:17.999355000,7.99935498046875,-0.980427917921543,0.6993214042991399,-0.423721963660419
2024-12-04 21:56:18.009389600,8.0093896484375,-1.1504460464090107,0.6959494436480105,-0.4002582320950925
2024-12-04 21:56:18.019424800,8.0194248046875,-1.3051017705917358,0.6704813865229488,-0.3030253538332879
2024-12-04 21:56:18.029459700,8.029459716796875,-1.5071294868022205,0.6063353698268532,-0.1284510233461857
2024-12-04 21:56:18.039494700,8.03949462890625,-1.6889584645926952,0.5529870798684656,0.0391251188166439
2024-12-04 21:56:18.049529900,8.04952978515625,-1.7808447211295366,0.5452151306927204,0.1458767899215221
2024-12-04 21:56:18.059564800,8.059564697265625,-1.7327940991878508,0.5739373673081397,0.215615219797194
2024-12-04 21:56:18.069599700,8.069599853515625,-1.6282067665100095,0.6182755445979535,0.2437351066052913
2024-12-04 21:56:18.079634700,8.079634765625,-1.3967857825547456,0.6004521570071578,0.2613670632772147
2024-12-04 21:56:18.089668900,8.0896689453125,-1.0733394258528948,0.5951876606076956,0.1757565260089933
2024-12-04 21:56:18.099703800,8.099703857421876,-0.6790379102051257,0.6055373513169586,0.0183605632074177
2024-12-04 21:56:18.109738800,8.10973876953125,-0.2986310643970966,0.5453479632921516,-0.1133332414522767
2024-12-04 21:56:18.119773700,8.119773681640625,-0.0170019882053136,0.4116955719105899,-0.2330244736291468
2024-12-04 21:56:18.129808600,8.12980859375,0.1555599795460701,0.3501851644150912,-0.3888168006263673
2024-12-04 21:56:18.139843600,8.139843505859375,0.1755301699072122,0.357472106552869,-0.59496948781237
2024-12-04 21:56:18.149878800,8.149878662109375,0.1058066453397273,0.365109469563514,-0.8367132744699716
2024-12-04 21:56:18.159913700,8.159913818359374,0.0366693962275981,0.3266170956924557,-1.0016581913463771
2024-12-04 21:56:18.169949000,8.169948974609374,0.0171399353712797,0.2648828163132071,-1.0546331179477273
2024-12-04 21:56:18.179983600,8.179983642578126,0.101079616817832,0.2407972995877265,-1.01405049379915
2024-12-04 21:56:18.190018600,8.1900185546875,0.220619019433856,0.2809051458314061,-0.9446968254573642
2024-12-04 21:56:18.200053800,8.2000537109375,0.3737047178208827,0.3196880270816385,-0.8289338726401329
2024-12-04 21:56:18.210088700,8.210088623046875,0.5000450326234102,0.2846219743974507,-0.6536195374406873
2024-12-04 21:56:18.220123600,8.22012353515625,0.5400725071072578,0.2687877147972584,-0.4780909749686717
2024-12-04 21:56:18.230158800,8.230158935546875,0.5648047973036766,0.3165868461959064,-0.4043310344919562
2024-12-04 21:56:18.240193500,8.240193603515625,0.5356032527387142,0.323828341756761,-0.3340682884812355
2024-12-04 21:56:18.250228700,8.250228759765625,0.4154126927375793,0.2335591650277376,-0.2305896476976573
2024-12-04 21:56:18.260263700,8.260263671875,0.2752081032335758,0.0884229643404483,-0.1201756546929478
2024-12-04 21:56:18.270298600,8.270298583984374,0.1563642816662788,0.0028201719872653,-0.0696682872489094
2024-12-04 21:56:18.280333800,8.280333740234376,0.0989642320990562,-0.0328657661609351,-0.0501223136492073
2024-12-04 21:56:18.290368800,8.29036865234375,0.1365729550033807,-0.080746292232722,-0.0729329881332814
2024-12-04 21:56:18.300403700,8.30040380859375,0.319361717736721,-0.128682640144974,-0.1007039153732359
2024-12-04 21:56:18.310438700,8.310438720703125,0.5261339981257915,-0.1664072445139288,-0.1107023084267973
2024-12-04 21:56:18.320473600,8.3204736328125,0.6441518902629614,-0.1974491562485694,-0.1216631167717278
2024-12-04 21:56:18.330508800,8.3305087890625,0.716139852631092,-0.2532034844353795,-0.099230335689336
2024-12-04 21:56:18.340543700,8.340543701171875,0.765825382298231,-0.3369878291897475,-0.024840865137428
2024-12-04 21:56:18.350578000,8.350577880859374,0.8087994316279887,-0.4200733780249953,0.0431304089352488
2024-12-04 21:56:18.360612600,8.360612548828126,0.8263181371837854,-0.4666450134553015,0.040497576213628
2024-12-04 21:56:18.370647600,8.3706474609375,0.8142273018956184,-0.5162456413179636,-0.0276231893323361
2024-12-04 21:56:18.380682800,8.380682861328125,0.777103147637844,-0.5590216838575899,-0.1179613396443426
2024-12-04 21:56:18.390717700,8.3907177734375,0.7701222027093172,-0.579488133303076,-0.2150818435728549
2024-12-04 21:56:18.400753000,8.4007529296875,0.817659614431858,-0.598803951408714,-0.2751743470944464
2024-12-04 21:56:18.410787800,8.410787841796875,0.9101292238146066,-0.6053704703174531,-0.2949953382432461
2024-12-04 21:56:18.420822500,8.420822509765625,1.01003161354661,-0.5878958961643278,-0.3505727024279534
2024-12-04 21:56:18.430857700,8.430857666015624,1.065946392992139,-0.5625786456868053,-0.4207604835063219
2024-12-04 21:56:18.440892700,8.440892578125,1.1339391482442618,-0.5584839237190783,-0.4278067487560212
2024-12-04 21:56:18.450927600,8.450927734375,1.1339333030253649,-0.5645527222387492,-0.409580479452759
2024-12-04 21:56:18.460962800,8.460962890625,1.0891156716555357,-0.5483383772797882,-0.4027091323785484
2024-12-04 21:56:18.470997800,8.470997802734376,1.0471440773665903,-0.4646507708981633,-0.4211617577835917
2024-12-04 21:56:18.481032700,8.48103271484375,0.9828449159353972,-0.3547784835547208,-0.4380716837912797
2024-12-04 21:56:18.491067600,8.491067626953125,0.9509633385062216,-0.2697802329659461,-0.4169399023048579
2024-12-04 21:56:18.501102600,8.5011025390625,0.9520990645378828,-0.2250527640976011,-0.3147939714297652
2024-12-04 21:56:18.511137800,8.5111376953125,0.9799252290964126,-0.2161509341090917,-0.2132435222297906
2024-12-04 21:56:18.521172700,8.5211728515625,1.021461939099431,-0.2126351810730993,-0.1319626847289502
2024-12-04 21:56:18.531207700,8.531207763671874,1.070000636819005,-0.2268069142885506,-0.0556152119770646
2024-12-04 21:56:18.541243000,8.541242919921874,1.0659697738677263,-0.2612095346279442,-0.0190428463831543
2024-12-04 21:56:18.551277600,8.551277587890626,0.9595862054228782,-0.2922182747453451,-0.0650122781366109
2024-12-04 21:56:18.561312800,8.561312744140626,0.8075953165352344,-0.2946389260210096,-0.1555748848542571
2024-12-04 21:56:18.571347700,8.57134765625,0.492372598299384,-0.3320974267996847,-0.1946243080861866
2024-12-04 21:56:18.581382700,8.581382568359375,0.1386807409375905,-0.3539037465468049,-0.2036687614157795
2024-12-04 21:56:18.591417900,8.59141796875,-0.0418821624398231,-0.2966797841988504,-0.2059986656680703
2024-12-04 21:56:18.601452800,8.601452880859375,-0.043219548523426,-0.2106155118137598,-0.1741173804998397
2024-12-04 21:56:18.611487700,8.61148779296875,0.0179103352218866,-0.1219165070109069,-0.1100457442142069
2024-12-04 21:56:18.621522700,8.621522705078124,0.0274894799500703,-0.060495092973113,-0.0316414850629866
2024-12-04 21:56:18.631556900,8.631556884765626,-0.0626122312575578,0.0053222179360687,0.1057199899695813
2024-12-04 21:56:18.641591800,8.641591796875,-0.2554822430223226,0.0480035679295659,0.2571145203992724
2024-12-04 21:56:18.651626800,8.651626708984375,-0.4738420853525399,0.0924449133329093,0.3765763277344405
2024-12-04 21:56:18.661661700,8.66166162109375,-0.6941092226088047,0.1318881581880152,0.4650787870518862
2024-12-04 21:56:18.671696600,8.671696533203125,-0.8903384816735982,0.1406459035307168,0.5591266055367887
2024-12-04 21:56:18.681731600,8.681731689453125,-1.0000146619230508,0.1504592954061925,0.6539945082329214
2024-12-04 21:56:18.691766800,8.691766845703125,-1.0671925936609503,0.2509855161249637,0.6760349289968609
2024-12-04 21:56:18.701801700,8.7018017578125,-1.221702187371254,0.3747003047294914,0.6728980922758578
2024-12-04 21:56:18.711837000,8.7118369140625,-1.4158178152829408,0.3527221355468034,0.7461534442313015
2024-12-04 21:56:18.721871600,8.72187158203125,-1.550205827462673,0.2675599265679717,0.8133074105717242
2024-12-04 21:56:18.731906600,8.731906494140626,-1.6215128218293189,0.2604423496477305,0.8022904881253838
2024-12-04 21:56:18.741941800,8.741941650390626,-1.5896259837031363,0.3859126036174595,0.7180700900413095
2024-12-04 21:56:18.751976700,8.751976806640625,-1.3456512231230735,0.5636847072325647,0.5925808391101658
2024-12-04 21:56:18.762011600,8.76201171875,-0.9028869976013898,0.7541209159791469,0.4639217259712517
2024-12-04 21:56:18.772046800,8.772046875,-0.4461889392733573,0.856341811786592,0.3985808004021644
2024-12-04 21:56:18.782081800,8.782081787109375,-0.130466454821825,0.8849876221649349,0.4102626164980232
2024-12-04 21:56:18.792117000,8.792116943359375,-0.0466758264571428,0.9205544639781116,0.5148499491758645
2024-12-04 21:56:18.802152000,8.80215185546875,-0.2410889760106802,0.9759620245538652,0.7040741517841815
2024-12-04 21:56:18.812187000,8.812186767578124,-0.7033750636041164,0.9743168876953422,0.8544299868158995
2024-12-04 21:56:18.822221800,8.822221923828126,-1.3043991752803326,0.9074543055169284,0.9373945396199822
2024-12-04 21:56:18.832256800,8.8322568359375,-1.8427812450826169,0.8332571426667272,0.942069691824168
2024-12-04 21:56:18.842291700,8.842291748046875,-2.0951298662543296,0.7560653280451893,0.8857317185305058
2024-12-04 21:56:18.852327000,8.852326904296875,-1.9810440528690807,0.6234522165834904,0.8313876955330372
2024-12-04 21:56:18.862361900,8.86236181640625,-1.581594068416953,0.4366629860371351,0.728498545075208
2024-12-04 21:56:18.872397000,8.87239697265625,-1.088667343366146,0.2615769066356122,0.5535426679246127
2024-12-04 21:56:18.882431700,8.882431640625,-0.6169640236079692,0.089035251019895,0.3644306935191154
2024-12-04 21:56:18.892466700,8.892466796875,-0.373644512066245,-0.0845325327731668,0.1896038495756685
2024-12-04 21:56:18.902502000,8.902501953125,-0.2676251007586717,-0.2846002009570598,0.1315041273064911
2024-12-04 21:56:18.912536800,8.912536865234374,-0.2010673467457294,-0.3558282848685979,0.084070614349842
2024-12-04 21:56:18.922571000,8.922571044921876,-0.2047264537751674,-0.2876858920127153,-0.0004378068953752
2024-12-04 21:56:18.932605700,8.932605712890625,-0.1804109276860952,-0.179915253123641,-0.048987172139436
2024-12-04 21:56:18.942641000,8.942640869140625,0.0007540332376956,-0.0958965150915086,-0.0712269148677587
2024-12-04 21:56:18.952675800,8.95267578125,0.297205415508151,-0.0498911352418363,-0.0746853847585618
2024-12-04 21:56:18.962710800,8.962710693359375,0.6270107858479023,-0.0912923822969198,-0.080960811766237
2024-12-04 21:56:18.972746000,8.97274609375,0.8990396745234728,-0.1597458869285881,-0.1911443570159375
2024-12-04 21:56:18.982781000,8.982781005859374,1.0256249039977787,-0.2858696363709866,-0.3766128603525459
2024-12-04 21:56:18.992815600,8.992815673828124,0.9838508781075476,-0.4091346353814005,-0.4881007661990821
2024-12-04 21:56:19.002850800,9.002850830078126,0.8674135331600904,-0.5043260709434747,-0.5609950297571719
2024-12-04 21:56:19.012885800,9.0128857421875,0.7848831339895724,-0.5504113841615617,-0.5892854508265852
2024-12-04 21:56:19.022921000,9.0229208984375,0.7656120318084955,-0.5322501429185271,-0.5742505249105394
2024-12-04 21:56:19.032956000,9.032955810546875,0.8002554751664399,-0.4915606973946094,-0.5256272176474333
2024-12-04 21:56:19.042990800,9.042990966796877,0.8594318867564201,-0.4361231800720095,-0.457374057893455
2024-12-04 21:56:19.053026000,9.053026123046877,0.9085995300292968,-0.3893568988524377,-0.3174073687985539
2024-12-04 21:56:19.063060700,9.063060791015625,0.8262725444763899,-0.3359254606552422,-0.1574624521665275
2024-12-04 21:56:19.073095700,9.073095703125,0.5728372971117496,-0.2199455040864646,-0.0777786745987832
2024-12-04 21:56:19.083131000,9.083130859375,0.2745353185385465,-0.125681704763323,-0.1040229767933487
2024-12-04 21:56:19.093165800,9.093165771484376,-0.0540659367084503,-0.0857514070436358,-0.2186503497093916
2024-12-04 21:56:19.103201000,9.103200927734376,-0.2505482937514782,-0.1083903782226145,-0.342444779421389
2024-12-04 21:56:19.113236000,9.113236083984376,-0.2686807472914457,-0.1238863457791507,-0.4158817715540528
2024-12-04 21:56:19.123270700,9.123270751953124,-0.1253717620313167,-0.1106530624575913,-0.4534019393920898
2024-12-04 21:56:19.133305900,9.133305908203123,0.1124263557404279,-0.0927745836786925,-0.3860957050994038
2024-12-04 21:56:19.143340800,9.1433408203125,0.4276058193564415,-0.1149412611708045,-0.2628258837834
2024-12-04 21:56:19.153375700,9.153375732421877,1.4584715466171505,-0.1642480206534266,0.0020145546928048
2024-12-04 21:56:19.163411000,9.163410888671876,3.237151198667288,-0.4712774955615401,0.5379489390820265
2024-12-04 21:56:19.173446000,9.17344580078125,2.265699198883772,-0.476276765153557,0.4110796319693326
2024-12-04 21:56:19.183480800,9.183480712890624,0.7500497210174798,-0.314369024015963,-0.1438484989643096
2024-12-04 21:56:19.193515800,9.193515869140626,-0.1805611498117446,-0.3980991543650627,-0.046529988245666
2024-12-04 21:56:19.203550700,9.20355078125,-0.3504004146009683,-0.5130751945883035,-0.0103369773581624
2024-12-04 21:56:19.213586000,9.2135859375,-0.1164829376548528,-0.506226059345901,-0.0585430821225047
2024-12-04 21:56:19.223620900,9.223620849609375,0.3123310884475708,-0.4631934116967022,-0.084490301066637
2024-12-04 21:56:19.233655800,9.23365576171875,0.715347240948677,-0.4607473337188363,-0.0076516837969422
2024-12-04 21:56:19.243691000,9.24369091796875,1.1069587868601083,-0.3963303911268711,-0.0315355404704809
2024-12-04 21:56:19.253725000,9.253724853515624,1.42219728718698,-0.3467424766153097,-0.172649061512947
2024-12-04 21:56:19.263760000,9.263759765625,1.4717337637722492,-0.4523742037795484,-0.1466404677703976
2024-12-04 21:56:19.273794800,9.273794921875,1.3010644778996705,-0.590741640984267,-0.0923114962115883
2024-12-04 21:56:19.283830000,9.283830078125,1.0194815789371727,-0.6848691005766392,-0.0607049363315105
2024-12-04 21:56:19.293865000,9.293864990234376,0.6438736578434705,-0.7321554601475596,-0.0520654105409979
2024-12-04 21:56:19.303899600,9.303899658203123,0.1584457641154527,-0.7949063692234456,-0.1014680316135287
2024-12-04 21:56:19.313934800,9.313934814453123,-0.4361877697408199,-0.8703327816076576,-0.0200732123441994
2024-12-04 21:56:19.323969800,9.3239697265625,-1.079808329606056,-0.9605958208568394,0.1969951288707554
2024-12-04 21:56:19.334005000,9.3340048828125,-1.6405074451565742,-1.0493173297524452,0.4395576845653355
2024-12-04 21:56:19.344040000,9.3440400390625,-1.9746710107058283,-0.9720657477676868,0.5716739524208009
2024-12-04 21:56:19.354075000,9.354074951171874,-2.0058780498743056,-0.6308299057446419,0.4948272979751229
2024-12-04 21:56:19.364109800,9.36410986328125,-1.8227181157410144,-0.197484373692423,0.3072714669704437
2024-12-04 21:56:19.374144800,9.374144775390626,-1.5644611473083496,0.0603092150121927,0.3718580670408904
2024-12-04 21:56:19.384179700,9.3841796875,-1.4613696061462162,0.0430211033418774,0.7591507268398999
2024-12-04 21:56:19.394215000,9.39421484375,-1.5671674836575984,-0.0409628556378185,1.0839175184905527
2024-12-04 21:56:19.404249900,9.404249755859375,-1.8896908802956345,-0.1448917244069278,1.3610507445678115
2024-12-04 21:56:19.414285000,9.41428515625,-2.272839133766293,-0.2357167814530432,1.4425678750425577
2024-12-04 21:56:19.424319700,9.42431982421875,-2.5308213769108057,-0.1447333189748227,1.1165537136793136
2024-12-04 21:56:19.434354700,9.434354736328125,-2.538027362766862,0.0362637380361557,0.600533697810769
2024-12-04 21:56:19.444390000,9.444389892578124,-2.31111479614675,0.2303587615512311,0.1965777802415192
2024-12-04 21:56:19.454424800,9.4544248046875,-1.897536333099008,0.4482978211861103,-0.08882555379197
2024-12-04 21:56:19.464459800,9.464459716796876,-1.4127555051028728,0.6451670586548746,-0.0891636997051537
2024-12-04 21:56:19.474495000,9.474494873046876,-0.9087526747643948,0.7142802693042903,0.0681653353400528
2024-12-04 21:56:19.484529700,9.48452978515625,-0.6417360612928867,0.623663886572793,0.1606358215056359
2024-12-04 21:56:19.494564900,9.49456494140625,-0.6118646546423435,0.5006771930471062,0.1844637102082371
2024-12-04 21:56:19.504599800,9.504599853515623,-0.6445324140131473,0.4707007185868919,0.233744750727713
2024-12-04 21:56:19.514634800,9.514634765625,-0.6387585067868232,0.434850383657217,0.2180216964170336
2024-12-04 21:56:19.524670000,9.524669921875,-0.6438865173250437,0.3687001509992405,0.163251410831511
2024-12-04 21:56:19.534705000,9.534704833984376,-0.5501841512769461,0.59382024471201,0.1987200529672205
2024-12-04 21:56:19.544739800,9.54473974609375,-0.4540794002622366,0.7262975278995931,0.3008686141908168
2024-12-04 21:56:19.554774800,9.55477490234375,-0.8167331472367048,0.496027175284177,0.3213555219024419
2024-12-04 21:56:19.564809700,9.564809814453126,-0.6678636052399873,0.8569858087785541,0.4485597600579261
2024-12-04 21:56:19.574845000,9.574844970703126,-0.5179091906160116,0.927815248761326,0.7174130874373018
2024-12-04 21:56:19.584879900,9.5848798828125,-0.5416717589974404,0.7545268664315342,1.1650333746880293
2024-12-04 21:56:19.594914800,9.594914794921875,-0.9003530952095985,0.2632797650307417,1.5277549262017012
2024-12-04 21:56:19.604950000,9.604949951171877,-1.2988929790794848,-0.2202290702681988,1.8050564945831893
2024-12-04 21:56:19.614984700,9.614984619140625,-1.286287180006504,-0.4548791723378002,1.8743755300030112
2024-12-04 21:56:19.625019000,9.625018798828124,-0.9942214654743672,-0.6141512312095612,1.4936132948860523
2024-12-04 21:56:19.635053800,9.6350537109375,-0.7169254500508307,-0.7589327732402831,0.6939446796968579
2024-12-04 21:56:19.645089000,9.645089111328126,-0.3535346209734678,-0.4663841705620288,0.0879822348356246
2024-12-04 21:56:19.655124000,9.6551240234375,0.2714922975808382,-0.049721916154772,-0.4743117486909031
2024-12-04 21:56:19.665158700,9.66515869140625,0.8847469452768564,0.3416178270779549,-0.7178149462364614
2024-12-04 21:56:19.675193900,9.67519384765625,1.2238199101775884,0.3162622904166579,-0.539423468613997
2024-12-04 21:56:19.685228800,9.685228759765623,1.0485989523500203,-0.2465785133376717,-0.1935105016253888
2024-12-04 21:56:19.695263700,9.695263671875,0.9155085787653924,-0.6392893987931311,0.1200664221648126
2024-12-04 21:56:19.705299000,9.705298828125,0.5847527758330107,-0.4231204175706952,0.6362940894346684
2024-12-04 21:56:19.715334000,9.715333984375,1.067372626402974,-0.08699775384292,0.2113841215660795
2024-12-04 21:56:19.725368800,9.725368896484374,1.595673447173834,0.5468801412954927,-0.7155147064700722
2024-12-04 21:56:19.735403800,9.73540380859375,1.8878139805078504,1.3390899649113417,-1.4971481910139322
2024-12-04 21:56:19.745438700,9.745438720703126,1.8233219268530607,1.5814213421985506,-2.056074305542558
2024-12-04 21:56:19.755474000,9.755473876953126,1.38303256701231,1.4359019874125718,-2.160864175055176
2024-12-04 21:56:19.765508000,9.765508056640623,0.9402332701772452,1.2106474171325563,-1.9350190915361043
2024-12-04 21:56:19.775543300,9.775543212890623,0.4266477879792452,0.92748389791511,-1.7655165113553404
2024-12-04 21:56:19.785578000,9.785577880859377,-0.0857856015741825,0.598347147551924,-1.736667141228914
2024-12-04 21:56:19.795613000,9.795613037109376,-0.4528489816844463,0.1859375821530818,-1.725498243091255
2024-12-04 21:56:19.805648100,9.805648193359374,-0.572103722140193,-0.2076937791481614,-1.6085231380052865
2024-12-04 21:56:19.815683000,9.81568310546875,-0.4471452170848846,-0.4917285282421856,-1.4060735431209206
2024-12-04 21:56:19.825718300,9.82571826171875,-0.1919640028357505,-0.635526977519691,-1.2011397302053868
2024-12-04 21:56:19.835753200,9.835753173828126,0.1173819323211908,-0.6076667645610868,-1.04300931564942
2024-12-04 21:56:19.845788000,9.845787841796875,0.3920364933252334,-0.4995910783108323,-0.9043314973212778
2024-12-04 21:56:19.855823000,9.855822998046875,0.6229600491523742,-0.3735279730144888,-0.7472038300670683
2024-12-04 21:56:19.865858000,9.865858154296877,0.8605880710542202,-0.2508840285118669,-0.5824342697575688
2024-12-04 21:56:19.875893000,9.87589306640625,1.1089929230362177,-0.1637055112745613,-0.4687975153140723
2024-12-04 21:56:19.885928200,9.88592822265625,1.358759126499295,-0.1117143350135534,-0.3670802216472104
2024-12-04 21:56:19.895963100,9.895963134765625,1.512286138913035,-0.0999585768986493,-0.2729407062908634
2024-12-04 21:56:19.905998000,9.905998046875,1.5323405004262924,-0.1642141183838248,-0.187017888203077
2024-12-04 21:56:19.916033000,9.916032958984376,1.4693448228091002,-0.2598174957476556,-0.1461815450217574
2024-12-04 21:56:19.926068000,9.92606787109375,1.3245131580263376,-0.3310957754764705,-0.1130348430275917
2024-12-04 21:56:19.936103200,9.936103271484376,1.146484741562605,-0.3768833843896165,-0.1174850821684114
2024-12-04 21:56:19.946138000,9.94613818359375,0.9784235923618078,-0.4353653839746489,-0.171766670921538
2024-12-04 21:56:19.956173000,9.956173095703123,0.8588847742676734,-0.4994717993127182,-0.2761111895531415
2024-12-04 21:56:19.966208000,9.9662080078125,0.7672948703289032,-0.537393935547769,-0.4003487599227577
2024-12-04 21:56:19.976243000,9.976242919921877,0.6733283003866672,-0.538967358876951,-0.4825009734306484
2024-12-04 21:56:19.986278100,9.986278076171876,0.5907230824142694,-0.5097459405677393,-0.5524355104003101
2024-12-04 21:56:19.996313000,9.99631298828125,0.5508242027461528,-0.4467693695098161,-0.6000861001737415
2024-12-04 21:56:20.006348000,10.00634814453125,0.5553238522529602,-0.368770658952184,-0.6111923083387315
2024-12-04 21:56:20.016383200,10.01638330078125,0.5203302802830935,-0.2857319449333474,-0.5981999211009591
2024-12-04 21:56:20.026418200,10.026418212890626,0.414641123843193,-0.2337456640431657,-0.52575223226659
2024-12-04 21:56:20.036453000,10.036453125,0.2935924857079983,-0.1636001877365633,-0.4021438631786033
2024-12-04 21:56:20.046488000,10.046488037109375,0.1703250024795532,-0.0824623754356056,-0.2436526342199184
2024-12-04 21:56:20.056523000,10.05652294921875,0.1117161616444587,-0.0181413309661671,-0.0963299746053293
2024-12-04 21:56:20.066558200,10.06655810546875,0.1263794777691364,0.0033491094985045,0.0113416243560612
2024-12-04 21:56:20.076592000,10.076592041015624,0.1769821222811937,-0.0322261896157637,0.0644394101521
2024-12-04 21:56:20.086627000,10.086626953125,0.2218465154021978,-0.0889341652655974,0.0532610957321245
2024-12-04 21:56:20.096662000,10.096662109375,0.2874485761255025,-0.17305316706812,0.0029342085546813
2024-12-04 21:56:20.106697000,10.106697021484376,0.31279870595932,-0.22276779496558,-0.0192571558541152
2024-12-04 21:56:20.116732200,10.116732177734375,0.2468243047922849,-0.2302394094878807,-0.0227752378445118
2024-12-04 21:56:20.126767000,10.12676708984375,0.1156505784839391,-0.2014203979671001,-0.0026552454828284
2024-12-04 21:56:20.136802300,10.13680224609375,0.0188578452050685,-0.1326960313716437,0.0210998428450431
2024-12-04 21:56:20.146837000,10.1468369140625,-0.0752262136369943,-0.0737127494672778,0.0338706688871607
2024-12-04 21:56:20.156872000,10.156871826171876,-0.1825841800719499,-0.0317127602009102,0.0529823427228257
2024-12-04 21:56:20.166907100,10.1669072265625,-0.2577040107250213,-0.0130938748508691,0.0547610245668329
2024-12-04 21:56:20.176942000,10.176942138671874,-0.3439607369422912,-0.0070748885559849,0.098534599376982
2024-12-04 21:56:20.186977000,10.18697705078125,-0.4534767581939697,-0.0047999841602519,0.191957938421145
2024-12-04 21:56:20.197012200,10.19701220703125,-0.5404571225106716,0.0569389713941141,0.2378027574142441
2024-12-04 21:56:20.207047000,10.207046875,-0.6206108556777239,0.1722988963684067,0.25185619801227
2024-12-04 21:56:20.217082000,10.21708203125,-0.740196435523033,0.268739071616251,0.3210202620660886
2024-12-04 21:56:20.227117000,10.227116943359375,-0.8489683604091406,0.3569692715972661,0.3680607205845415
2024-12-04 21:56:20.237152000,10.237152099609377,-1.0062252070009707,0.444190495465137,0.4103503313140943
2024-12-04 21:56:20.247187200,10.247187255859377,-1.1520301007300615,0.4848355538580566,0.5065765898166225
2024-12-04 21:56:20.257222100,10.25722216796875,-1.2678747404813766,0.5057946821913123,0.6623225569214671
2024-12-04 21:56:20.267257000,10.267257080078124,-1.24259767588377,0.542010233704187,0.7704054766301065
2024-12-04 21:56:20.277292000,10.2772919921875,-1.0471592749357224,0.5807034639095887,0.7914093208879232
2024-12-04 21:56:20.287327000,10.287326904296876,-0.7301777303338051,0.605869140554592,0.7601552277073264
2024-12-04 21:56:20.297362200,10.297362060546876,-0.4104699756383895,0.6121701403949409,0.6214660112023354
2024-12-04 21:56:20.307397000,10.307397216796875,-0.2106377236455678,0.6341819926515221,0.3974481431104242
2024-12-04 21:56:20.317432000,10.31743212890625,-0.2237555638939142,0.650071562635526,0.2104576909035444
2024-12-04 21:56:20.327467300,10.32746728515625,-0.4620055170863866,0.6846097189880908,0.1395388190716505
2024-12-04 21:56:20.337502000,10.337501953125,-0.8425982408553362,0.7511699572190642,0.1731895067988894
2024-12-04 21:56:20.347537200,10.347537109375,-1.2232932559549807,0.8284921202220022,0.2011706244571134
2024-12-04 21:56:20.357572000,10.357572021484376,-1.516896263056993,0.8908627978086471,0.261388306994643
2024-12-04 21:56:20.367607000,10.36760693359375,-1.69762166351974,0.9209002086758612,0.3305484437920153
2024-12-04 21:56:20.377642200,10.377642333984374,-1.7504513364315033,0.8721731487773359,0.435802058358863
2024-12-04 21:56:20.387677200,10.38767724609375,-1.6836445760935543,0.7239451195545494,0.624187837381661
2024-12-04 21:56:20.397712000,10.3977119140625,-1.472567291986942,0.5648533491531387,0.7691540152642875
2024-12-04 21:56:20.407747000,10.4077470703125,-1.1122609849214553,0.4235626814454793,0.8265237427584826
2024-12-04 21:56:20.417782000,10.417781982421875,-0.7255237670481205,0.314208572757244,0.7955374336685985
2024-12-04 21:56:20.427817200,10.427817138671877,-0.3550836039811372,0.1623007955757901,0.711518330310285
2024-12-04 21:56:20.437852200,10.43785205078125,-0.063193830537796,0.0561926100062206,0.6144432729586958
2024-12-04 21:56:20.447887000,10.44788720703125,0.1173164658695459,-0.0368835504349321,0.515855546021834
2024-12-04 21:56:20.457922000,10.457922119140624,0.229550513908267,-0.1215163287121802,0.4409446454117074
2024-12-04 21:56:20.467957000,10.46795703125,0.2929839984208345,-0.1813855448719113,0.3766511100037023
2024-12-04 21:56:20.477992000,10.477991943359376,0.2865501659810543,-0.2044031035723164,0.3140873209977522
2024-12-04 21:56:20.488027100,10.488027099609376,0.2429120997846126,-0.2312588156634941,0.2835178125478327
2024-12-04 21:56:20.498062000,10.49806201171875,0.2156874082505702,-0.2504138537168502,0.2725424276882782
2024-12-04 21:56:20.508097300,10.50809716796875,0.2413946809589862,-0.2411460764927789,0.2546922982210293
2024-12-04 21:56:20.518132200,10.51813232421875,0.304904153317213,-0.2697588248517364,0.2306124988502822
2024-12-04 21:56:20.528167000,10.5281669921875,0.3876163387954235,-0.324514899248816,0.2150542066472582
2024-12-04 21:56:20.538202000,10.5382021484375,0.4627198028355836,-0.3579876548595726,0.224286802960094
2024-12-04 21:56:20.548237000,10.548237060546874,0.5557470461010933,-0.4088946891456842,0.1784788636449724
2024-12-04 21:56:20.558272000,10.55827197265625,0.6095113695144653,-0.4415716182036325,0.1039958330580964
2024-12-04 21:56:20.568307200,10.56830712890625,0.5977940437138081,-0.4818377602815628,0.0411553094699978
2024-12-04 21:56:20.578342100,10.578342041015626,0.5645651433289051,-0.5229740362575277,0.0101590269753709
2024-12-04 21:56:20.588377000,10.588377197265626,0.5172381594866514,-0.552280904360488,0.03593218626054
2024-12-04 21:56:20.598412000,10.598412109375,0.504442975321412,-0.5682137654969468,0.0970521514000371
2024-12-04 21:56:20.608447000,10.608447021484375,0.5570107824265956,-0.5564298407334834,0.1186846854828298
2024-12-04 21:56:20.618482200,10.618482177734377,0.624075901439786,-0.5452625865636394,0.1144237766353413
2024-12-04 21:56:20.628517000,10.62851708984375,0.7044312946587801,-0.5542933036288247,0.1316256347943097
2024-12-04 21:56:20.638551000,10.638551025390624,0.7828484132915735,-0.5437467751732096,0.1233117972942069
2024-12-04 21:56:20.648586000,10.6485859375,0.8295809383720159,-0.5084980228658765,0.1282048300327733
2024-12-04 21:56:20.658621200,10.65862109375,0.8417734804689884,-0.4771143484888598,0.1415010955879464
2024-12-04 21:56:20.668656000,10.66865625,0.8384744389235973,-0.429540221485123,0.1545821840224787
2024-12-04 21:56:20.678691000,10.678691162109375,0.8097031024694442,-0.3671286273662,0.1892889018749818
2024-12-04 21:56:20.688726300,10.688726318359375,0.7493915493696928,-0.3207471807457506,0.2123344810934737
2024-12-04 21:56:20.698761000,10.698760986328123,0.6908253786325455,-0.2521558385459706,0.2402253814512863
2024-12-04 21:56:20.708796000,10.7087958984375,0.5966992342144251,-0.1773728386318311,0.2748509238263592
2024-12-04 21:56:20.718831000,10.7188310546875,0.4531669615924358,-0.1397927207674831,0.2769315294926986
2024-12-04 21:56:20.728866000,10.728865966796874,0.3112304337292909,-0.1144711959736421,0.2637157452952116
2024-12-04 21:56:20.738901200,10.7389013671875,0.249664496654272,-0.0826464998308569,0.2061379645409062
2024-12-04 21:56:20.748936200,10.748936279296874,0.2410240940809249,-0.0635251083187758,0.0914059987392276
2024-12-04 21:56:20.758970600,10.758970703125,0.2702490195214748,-0.0682949896017089,0.0283387171905487
2024-12-04 21:56:20.769005800,10.769005859375,0.3341097895354032,-0.0944456221634522,0.0230166088523343
2024-12-04 21:56:20.779040800,10.779040771484375,0.3781283794820308,-0.0691333035893738,-0.0203009201528504
2024-12-04 21:56:20.789076000,10.789075927734377,0.3716244044154882,-0.0074756696429103,-0.0389369027681648
2024-12-04 21:56:20.799111000,10.79911083984375,0.3229401607453823,0.0550246439390815,-0.0578127950865775
2024-12-04 21:56:20.809145900,10.809145751953125,0.2426326983213424,0.1291190405345521,-0.0421715738404542
2024-12-04 21:56:20.819181000,10.81918115234375,0.1326467214703559,0.1845530324595048,0.0157223236583173
2024-12-04 21:56:20.829215700,10.8292158203125,0.0044026188731193,0.2175945205135271,0.0625345629114657
2024-12-04 21:56:20.839250700,10.839250732421876,-0.1219622458487749,0.2712700148659758,0.0219810187269002
2024-12-04 21:56:20.849286000,10.849285888671876,-0.2066039380848407,0.3085515699088573,0.0110551355648785
2024-12-04 21:56:20.859320800,10.85932080078125,-0.2991144639998674,0.3266213334761559,0.0495423218041658
2024-12-04 21:56:20.869356000,10.86935595703125,-0.3413713049709796,0.2993763663390651,0.103950276883319
2024-12-04 21:56:20.879391000,10.879390869140623,-0.3556809853523969,0.2108421419101767,0.1869367492582649
2024-12-04 21:56:20.889425700,10.88942578125,-0.3491425234943628,0.1030090322441421,0.2835746573016047
2024-12-04 21:56:20.899460900,10.8994609375,-0.2922591912776232,0.0053443658357951,0.3134839848097414
2024-12-04 21:56:20.909495800,10.909495849609376,-0.258547475811839,-0.0260009447256335,0.230572550432384
2024-12-04 21:56:20.919530800,10.91953076171875,-0.2318096910119056,0.0049762494760332,0.1097857050385326
2024-12-04 21:56:20.929566000,10.92956591796875,-0.2085036342263221,0.0321674634321592,0.0346246655922383
2024-12-04 21:56:20.939601000,10.939600830078126,-0.2064525469154119,0.0287557096267584,0.0015169073689728
2024-12-04 21:56:20.949635800,10.9496357421875,-0.2262766068041324,-0.0207670398272573,-0.0041599692236632
2024-12-04 21:56:20.959670800,10.9596708984375,-0.283383810904622,-0.0469346783227287,-0.034126214550808
2024-12-04 21:56:20.969705700,10.969705810546875,-0.378085124862194,0.0181075382944196,-0.1252473319340497
2024-12-04 21:56:20.979741000,10.979740966796877,-0.4941553900629282,0.157154884054698,-0.2563815299496054
2024-12-04 21:56:20.989776000,10.98977587890625,-0.5944067393630743,0.316682050198689,-0.3624360125705599
2024-12-04 21:56:20.999810800,10.999810791015625,-0.7160340541690587,0.4456072303952649,-0.4134116551134735
2024-12-04 21:56:21.009845800,11.009845703125,-0.892433408126235,0.4976137503558769,-0.3761591252356767
2024-12-04 21:56:21.019880700,11.019880615234374,-1.052529862058163,0.5312719090035185,-0.2474666212838143
2024-12-04 21:56:21.029916000,11.029916015625,-1.121907349666953,0.5588141785867512,-0.1109053567182272
2024-12-04 21:56:21.039950800,11.039950927734376,-0.9939309580951928,0.5639870877126232,0.0172920571930706
2024-12-04 21:56:21.049985800,11.04998583984375,-0.7263257310807705,0.5541048683846369,0.0765842041172087
2024-12-04 21:56:21.060021000,11.06002099609375,-0.3957347633212804,0.5570723398881032,0.0824456434965133
2024-12-04 21:56:21.070056000,11.070055908203123,-0.0892757817775011,0.5418916853584349,0.0551366346798837
2024-12-04 21:56:21.080091000,11.0800908203125,0.1192757832437753,0.5123277737544849,-0.0327119638387113
2024-12-04 21:56:21.090125800,11.090125732421876,0.1447463245868682,0.5144784489823505,-0.0986903105285018
2024-12-04 21:56:21.100160800,11.100160888671876,-0.0494908838778734,0.5069440714221447,-0.1268110741194337
2024-12-04 21:56:21.110196000,11.110196044921874,-0.4372726423680782,0.4857935852352529,-0.1366376908026635
2024-12-04 21:56:21.120231000,11.12023095703125,-0.8725333603918551,0.5347388544617221,-0.1660483480736613
2024-12-04 21:56:21.130265900,11.130265869140626,-1.2860802592575549,0.6580781242847442,-0.2243348981518298
2024-12-04 21:56:21.140300800,11.14030078125,-1.6622791319817305,0.738617422703281,-0.2097848331432789
2024-12-04 21:56:21.150335700,11.150335693359375,-1.8887351870059963,0.6714227590262889,-0.1474441853687167
2024-12-04 21:56:21.160371000,11.160370849609375,-1.903302057018876,0.5857851145554334,-0.1372613756589591
2024-12-04 21:56:21.170406000,11.170406005859377,-1.7613164293169974,0.5731696708712727,-0.2630588888216764
2024-12-04 21:56:21.180440800,11.18044091796875,-1.5199030436575411,0.6123903955494985,-0.3687692341800779
2024-12-04 21:56:21.190476000,11.19047607421875,-1.2525614360153674,0.6105147378707304,-0.3649336746051907
2024-12-04 21:56:21.200510700,11.2005107421875,-0.9650877254486084,0.5859787374313921,-0.4087587147410959
2024-12-04 21:56:21.210545700,11.210545654296874,-0.6222597919285296,0.4990849188869818,-0.4817644027844071
2024-12-04 21:56:21.220580900,11.220580810546876,-0.321924261701107,0.3987530882291495,-0.5226490055542439
2024-12-04 21:56:21.230615800,11.23061572265625,-0.1270785659492015,0.2905021915424615,-0.5230504990272223
2024-12-04 21:56:21.240651000,11.240651123046876,0.014996493601799,0.2004681752761825,-0.5815799910157918
2024-12-04 21:56:21.250686000,11.25068603515625,0.1663794797241687,0.2030070278377272,-0.6957838047575206
2024-12-04 21:56:21.260720600,11.260720703125,0.3606161036670208,0.2838306413566693,-0.8311433653831481
2024-12-04 21:56:21.270755800,11.270755859375,0.6157248372018337,0.2832087283323519,-0.8817949636034667
2024-12-04 21:56:21.280790800,11.280790771484376,0.8252508002132177,0.1748054723618552,-0.7975666744738816
2024-12-04 21:56:21.290825700,11.29082568359375,0.9655091657310724,0.0630068931309506,-0.6711403618883341
2024-12-04 21:56:21.300861000,11.30086083984375,1.0567986254185435,0.0149809763722587,-0.5256519867625087
2024-12-04 21:56:21.310895900,11.310895751953124,1.1199112074136732,0.0747554999858606,-0.3835772925376892
2024-12-04 21:56:21.320931000,11.32093115234375,1.171675296920538,0.1664081760956905,-0.2803021384369581
2024-12-04 21:56:21.330965800,11.3309658203125,1.1071376505583523,0.1831954073054716,-0.2585612851414829
2024-12-04 21:56:21.341000700,11.341000732421875,0.984447090435028,0.1270841828392352,-0.3138580057539045
2024-12-04 21:56:21.351036000,11.351035888671875,0.852266817432642,0.0483427641555201,-0.4008213458705693
2024-12-04 21:56:21.361070800,11.36107080078125,0.7511568054765463,-0.0733863396576605,-0.4528152255453169
2024-12-04 21:56:21.371105800,11.371105712890625,0.665614949530363,-0.1913065618403255,-0.4755232433725148
2024-12-04 21:56:21.381141000,11.38114111328125,0.620800825291872,-0.2492691954600624,-0.4698418732678517
2024-12-04 21:56:21.391175700,11.39117578125,0.564229627764225,-0.2804666813489049,-0.4823331791156902
2024-12-04 21:56:21.401211000,11.4012109375,0.5598083041906357,-0.2872432993443682,-0.5009588595326989
2024-12-04 21:56:21.411245800,11.411245849609376,0.5949287174105644,-0.2864779044624418,-0.4557763038406148
2024-12-04 21:56:21.421280800,11.42128076171875,0.695587478467822,-0.2831493810942396,-0.3620107363631948
2024-12-04 21:56:21.431316000,11.43131591796875,0.7496504925668239,-0.2496949283251538,-0.2100678513357415
2024-12-04 21:56:21.441351000,11.441350830078123,0.808002728292346,-0.2386751198019832,-0.0464733261549845
2024-12-04 21:56:21.451385900,11.4513857421875,0.7958721455156803,-0.2519437301652505,0.1057712452327832
2024-12-04 21:56:21.461420800,11.4614208984375,0.7607979095250368,-0.2915079162525944,0.2157173284647986
2024-12-04 21:56:21.471455700,11.471455810546876,0.7317372347354888,-0.3015750636934302,0.2350709578301757
