time,seconds_elapsed,z,y,x
2024-12-04 21:58:02.280754200,0.054754150390625,0.5776596027016639,0.5472285163417459,0.2268541144311427
2024-12-04 21:58:02.290829000,0.0648291015625,0.5584457836657762,0.2277145306527614,0.4053368505336344
2024-12-04 21:58:02.300904000,0.074904052734375,0.0885088890582323,-0.0939130861893296,0.449482281730324
2024-12-04 21:58:02.310978000,0.08497802734375,-0.603389087241888,0.2104036226287484,-0.0346877208910882
2024-12-04 21:58:02.321053200,0.09505322265625,-0.6650175681591034,0.2120987361088395,-0.1767345772609114
2024-12-04 21:58:02.331127000,0.105126953125,-0.2138017406344413,-0.1867345777496695,0.0458034275367856
2024-12-04 21:58:02.341202200,0.1152021484375,0.2341431023955345,0.0643918081507086,-0.1796687310166657
2024-12-04 21:58:02.351277000,0.125277099609375,0.2994692687869071,0.4254851739406585,-0.1292570790320635
2024-12-04 21:58:02.361351200,0.13535107421875,0.5159264923661947,-0.5574368988841771,0.4533602922074496
2024-12-04 21:58:02.371426000,0.145426025390625,0.6510077475070953,-1.2664084673210978,0.3324941710323095
2024-12-04 21:58:02.381501700,0.155501708984375,0.6942623673439026,-1.1397972266227006,-0.2533957921370863
2024-12-04 21:58:02.391575800,0.165575927734375,0.5621434691399335,-0.5700853680551051,-0.2895714134983718
2024-12-04 21:58:02.401650700,0.175650634765625,1.1702455563783645,0.5050371418222784,-0.3937687239453196
2024-12-04 21:58:02.411725800,0.185725830078125,1.644444784605503,1.3852972970739006,-0.7860602149449288
2024-12-04 21:58:02.421801000,0.195801025390625,0.5495253951072693,0.8388172610118985,-0.908583309546858
2024-12-04 21:58:02.431874800,0.205874755859375,-0.4423328483670949,0.675808280634135,-0.6212121825717389
2024-12-04 21:58:02.441950000,0.215949951171875,-0.5155646733164787,0.9086625122629104,-0.4774366027131676
2024-12-04 21:58:02.452024600,0.226024658203125,-0.7238011810392141,1.012984472002834,-0.1581914970934391
2024-12-04 21:58:02.462099000,0.236098876953125,-0.5390355652749538,1.091251368509978,0.1845508039698004
2024-12-04 21:58:02.472173600,0.246173583984375,0.1277490125566721,1.094839163868874,0.5161974182620644
2024-12-04 21:58:02.482248700,0.256248779296875,0.0173667298644781,0.6470984651088714,1.0578025417640804
2024-12-04 21:58:02.492322600,0.266322509765625,-0.3572445814073086,-0.0990206384614109,1.3082368537470697
2024-12-04 21:58:02.502397700,0.276397705078125,-0.6995178036540747,-0.6917924700990319,0.6978025241687893
2024-12-04 21:58:02.512472800,0.286472900390625,-0.5579214675307274,-0.6572837590366601,0.2923699581757187
2024-12-04 21:58:02.522546700,0.296546630859375,-0.1473322494268417,-0.5687712167166173,0.385655267855525
2024-12-04 21:58:02.532621800,0.306621826171875,-0.4429629629641771,-1.1121686304628848,0.536799184525013
2024-12-04 21:58:02.542696700,0.31669677734375,-0.1417050571948289,-1.647342844134569,0.8910439995944499
2024-12-04 21:58:02.552770800,0.326770751953125,-0.3773275844931602,-2.2005732312396167,1.3491279593229293
2024-12-04 21:58:02.562845700,0.336845703125,-0.1342529876232147,-2.204674821339548,1.2770204622283576
2024-12-04 21:58:02.572920800,0.3469208984375,1.523901757904887,-0.974720938451588,0.1140773378178477
2024-12-04 21:58:02.582996000,0.356995849609375,2.6756618095219133,-0.1998841283105313,-0.4936266900137067
2024-12-04 21:58:02.593069800,0.36706982421875,2.903695489126444,-0.4203076251722872,-0.2706976400718093
2024-12-04 21:58:02.603145000,0.37714501953125,3.174415048769116,-0.5841755604669452,-0.4620332818761468
2024-12-04 21:58:02.613219800,0.3872197265625,3.4428836146146056,-0.7020835624888538,-0.6614397096723318
2024-12-04 21:58:02.623294000,0.3972939453125,3.3706939921945334,-0.3611852818571031,-0.4548492155909538
2024-12-04 21:58:02.633368800,0.407368896484375,3.304899039247632,-0.2189677450954913,-0.2717801746115088
2024-12-04 21:58:02.643443700,0.417443603515625,1.5763959152519702,-0.99229488132596,0.2415124621197581
2024-12-04 21:58:02.653518600,0.4275185546875,-0.0294774388968944,-0.8345217557750642,0.8284687393464147
2024-12-04 21:58:02.663592700,0.4375927734375,-0.0435410355627536,0.955638344579935,0.5770939316429198
2024-12-04 21:58:02.673667600,0.44766748046875,-0.1269306819111108,1.0984591079317032,-0.9297915172703564
2024-12-04 21:58:02.683742700,0.45774267578125,-0.8335165242552757,0.8032051187522709,-1.1759456677161158
2024-12-04 21:58:02.693816600,0.467816650390625,-1.557315367206931,0.7571915555961429,-0.2149864203743636
2024-12-04 21:58:02.703891700,0.4778916015625,-1.607991076955199,0.0220655552051961,0.434275067987293
2024-12-04 21:58:02.713966800,0.487966796875,-0.7414882288992405,-0.3073470164246857,0.1957381145469844
2024-12-04 21:58:02.724041700,0.498041748046875,-0.111392921039462,-0.1294381346873939,-0.4733740294493734
2024-12-04 21:58:02.734115800,0.50811572265625,0.0190969146579504,0.0400524627946317,-0.4595515480630099
2024-12-04 21:58:02.744190700,0.518190673828125,-0.1575765800654888,0.5451376815423369,-0.386373352997005
2024-12-04 21:58:02.754265900,0.528265869140625,0.0192851307064294,0.748898797416687,-0.6017423429481685
2024-12-04 21:58:02.764339700,0.538339599609375,0.1650952851325273,0.326072029030323,-0.6772698776192962
2024-12-04 21:58:02.774414800,0.548414794921875,-0.2669002936154603,0.0257338684543967,-1.0218576604187488
2024-12-04 21:58:02.784490000,0.558489990234375,-0.8006576262265443,-0.2422285014346241,-0.9495289217889308
2024-12-04 21:58:02.794564600,0.568564697265625,-1.2977952469706535,-0.3983896617442369,-0.9589055296823382
2024-12-04 21:58:02.804639000,0.578638916015625,-1.7932821778982877,-0.2151654302030801,-0.5768675755411387
2024-12-04 21:58:02.814713600,0.588713623046875,-1.9961311473637813,0.0353460386693477,-0.2550469203449785
2024-12-04 21:58:02.824788700,0.598788818359375,-1.444381061944365,0.0894648746088147,-0.087709263113141
2024-12-04 21:58:02.834862600,0.608862548828125,-0.9942600439190864,-0.2056868232399225,-0.0346530879691243
2024-12-04 21:58:02.844937700,0.618937744140625,-0.4313561118006705,-0.1001958197206258,-0.1973060945160686
2024-12-04 21:58:02.855012900,0.629012939453125,0.6109054542213678,-0.3822954360336065,-0.0272597628474235
2024-12-04 21:58:02.865087700,0.639087646484375,2.124368235698342,-0.5322817071005702,-0.03255830764696
2024-12-04 21:58:02.875161900,0.649161865234375,0.8445961366742849,-0.0227595288187265,-0.5068867152117192
2024-12-04 21:58:02.885236700,0.65923681640625,-0.2164484557509422,0.5232239558979869,-0.7377563488945365
2024-12-04 21:58:02.895312000,0.669311767578125,-0.7744003184199333,0.540383472752571,-0.4393254832446575
2024-12-04 21:58:02.905386800,0.67938671875,-0.863059429603815,0.2941656094208359,-0.0603192980147898
2024-12-04 21:58:02.915460900,0.6894609375,-0.7402841138064861,0.046986792102456,-0.1768719399049878
2024-12-04 21:58:02.925535700,0.69953564453125,-0.8166735260039567,0.0804465786337852,-0.126853817282617
2024-12-04 21:58:02.935611000,0.70961083984375,-0.5824748940289021,0.0256391759082674,0.1424149590298533
2024-12-04 21:58:02.945685800,0.719685791015625,-0.4190367284536361,-0.1947258687645196,0.3282870747312903
2024-12-04 21:58:02.955759900,0.729759765625,-0.6399234589129686,-0.5477385116904974,0.2564899587601423
2024-12-04 21:58:02.965834800,0.739834716796875,-0.5125134690523148,-0.6874810366407036,0.0396717929139733
2024-12-04 21:58:02.975909600,0.74990966796875,-0.0608627572417259,-0.4581400738298892,0.0909400617279112
2024-12-04 21:58:02.985984800,0.75998486328125,0.6918219884544611,-0.2410354922577738,-0.1315107031777501
2024-12-04 21:58:02.996058600,0.77005859375,0.4331213679075241,0.3121320587441325,-0.6027484512507915
2024-12-04 21:58:03.006133800,0.7801337890625,-0.9670172322064636,0.2451256841808557,-0.0700200232960283
2024-12-04 21:58:03.016209000,0.790208984375,-1.1324030247181651,0.1767687717914581,0.2112250220142305
2024-12-04 21:58:03.026283800,0.80028369140625,-0.634751024711132,0.486511012789607,0.2516901572629809
2024-12-04 21:58:03.036358000,0.81035791015625,-0.6794225256085396,0.8276458786562084,0.0981950012922286
2024-12-04 21:58:03.046432800,0.820432861328125,-0.9702239192932844,0.680872724416852,0.0549744298554956
2024-12-04 21:58:03.056508000,0.8305078125,-0.4458288737893104,0.6215493055716157,-0.1462324714913964
2024-12-04 21:58:03.066582800,0.840582763671875,-0.3412520625054836,0.8584092657104134,-0.4712905011735856
2024-12-04 21:58:03.076657000,0.850656982421875,0.3127244716793299,1.566364642842114,-0.6256282454483211
2024-12-04 21:58:03.086731800,0.860731689453125,0.2838531819820404,1.376368725208938,-0.6035919163376092
2024-12-04 21:58:03.096806700,0.870806640625,-0.0615764584690332,0.8842632534131407,-0.7520553617514669
2024-12-04 21:58:03.106880800,0.880880859375,-0.5259405213803052,0.6650608227789402,-1.3574896910853682
2024-12-04 21:58:03.116955600,0.89095556640625,-0.6882201645702123,0.632995997737348,-1.2866370163574814
2024-12-04 21:58:03.127030800,0.90103076171875,-1.173728722319007,0.9077610333785414,-1.6443763955444095
2024-12-04 21:58:03.137105700,0.911105712890625,-2.480314593988657,1.111798920367658,-2.3817482751660046
2024-12-04 21:58:03.147179800,0.9211796875,-2.8338071293860674,1.5995862367033955,-0.3473610469050705
2024-12-04 21:58:03.157254700,0.931254638671875,-2.871366752451658,0.8930220216691493,0.9306635508645326
2024-12-04 21:58:03.167329800,0.941329833984375,-2.231543246781826,-0.2142132440447807,1.0274238431785254
2024-12-04 21:58:03.177405000,0.951405029296875,-1.3958569772720335,-1.1551432643145323,0.5344247104786336
2024-12-04 21:58:03.187479800,0.961479736328125,-1.4013140736341476,-1.431509305411577,0.7544621306322514
2024-12-04 21:58:03.197554000,0.971553955078125,-1.4755565369307997,-1.108660330080986,0.1260195584155619
2024-12-04 21:58:03.207628800,0.98162890625,-0.7827379386544228,-0.3361471405819058,-0.175307613197714
2024-12-04 21:58:03.217704000,0.991703857421875,0.4690834926486015,-0.167102533301711,0.1524061916902661
2024-12-04 21:58:03.227778600,1.001778564453125,1.2323130132347344,-0.4784197685316205,0.2093266410470008
2024-12-04 21:58:03.237853000,1.01185302734375,1.301167938274145,-1.1390718349575997,0.3355941828742623
2024-12-04 21:58:03.247927600,1.021927490234375,0.7427092951267957,-1.0848898706540464,-0.4175099572777748
2024-12-04 21:58:03.258002700,1.032002685546875,-1.1447744305133818,-1.3478592545613646,0.4266495415449142
2024-12-04 21:58:03.268077800,1.042077880859375,-2.3282839576125145,-1.9487711380347608,0.1224985446825623
2024-12-04 21:58:03.278151700,1.052151611328125,-2.3311668195724486,-2.107440189512074,-0.7440104408532381
2024-12-04 21:58:03.288226800,1.062226806640625,-1.9835282709002493,-1.938690765786171,-1.295011461471021
2024-12-04 21:58:03.298301700,1.0723017578125,-0.8208505194276571,-1.6249483492359518,-0.8017053817138076
2024-12-04 21:58:03.308376800,1.082376953125,-1.3694716591715812,-1.3070870991900565,0.2526218851551413
2024-12-04 21:58:03.318450700,1.09245068359375,-2.975529722237587,-0.4385799255743622,0.0410123938679695
2024-12-04 21:58:03.328525800,1.10252587890625,-3.113815326377749,0.5750196095868945,-1.2189876677155491
2024-12-04 21:58:03.338601000,1.11260107421875,-2.9383588062286377,0.0756309950456023,-2.9078996628180143
2024-12-04 21:58:03.348675800,1.12267578125,-2.397363923579454,0.2742830973431467,-3.616473756369948
2024-12-04 21:58:03.358750000,1.13275,-1.929718939301372,1.425410988536477,-3.991258962903917
2024-12-04 21:58:03.368824800,1.142824951171875,-2.2737024725973605,2.7860411696046588,-3.0339655445933342
2024-12-04 21:58:03.378899700,1.152899658203125,-3.2127591002106666,3.0104730253249405,-1.5437965449422597
2024-12-04 21:58:03.388974600,1.162974609375,-3.432756772875785,1.8861954393953084,-1.2219634686559435
2024-12-04 21:58:03.399048700,1.173048583984375,-1.1158417660176754,0.9511176522850988,-1.599438352665305
2024-12-04 21:58:03.409123600,1.18312353515625,0.3576882335215807,1.038259929165244,-2.097201704092324
2024-12-04 21:58:03.419198700,1.19319873046875,2.628585001048445,1.8161638717919584,-2.327415065823496
2024-12-04 21:58:03.429273900,1.20327392578125,2.7997131366044283,1.865904931038618,-2.077130391444266
2024-12-04 21:58:03.439347700,1.21334765625,0.956128758445382,1.5338625954270362,-0.8906991316795349
2024-12-04 21:58:03.449422800,1.2234228515625,-0.8350608310878276,1.8320529303193087,0.5215796958222985
2024-12-04 21:58:03.459497700,1.233497802734375,-1.9268483523011208,2.658774972128868,0.8525053023636341
2024-12-04 21:58:03.469572900,1.24357275390625,-3.657031392207741,3.051573097476363,0.1067243447065353
2024-12-04 21:58:03.479648000,1.25364794921875,-3.830186649677157,2.913241900628805,-1.1818813413754106
2024-12-04 21:58:03.489721900,1.263721923828125,-1.3619593838453292,2.454717211395502,-1.648043978141248
2024-12-04 21:58:03.499797000,1.273796875,1.7602192817300557,3.3045828129053114,-1.93785256139636
2024-12-04 21:58:03.509871600,1.28387158203125,4.687221412163972,4.941549224454164,-0.8971715425640344
2024-12-04 21:58:03.519946800,1.29394677734375,5.766838018590212,4.366421186056733,1.402011992770433
2024-12-04 21:58:03.530020600,1.3040205078125,5.017456990614533,4.304329763802886,2.2609864911481736
2024-12-04 21:58:03.540095700,1.314095703125,2.3606465965569017,5.162236048427224,2.649315946649015
2024-12-04 21:58:03.550170600,1.324170654296875,-2.4992671317398547,5.636788912397623,2.181976082797348
2024-12-04 21:58:03.560245800,1.334245849609375,-7.537418535336852,5.929556053197383,1.319736152882874
2024-12-04 21:58:03.570320000,1.34431982421875,-10.268866529488562,6.2918216776371,1.2447007856428622
2024-12-04 21:58:03.580394800,1.354394775390625,-10.389496649950742,6.536665037745237,1.374122699847817
2024-12-04 21:58:03.590470000,1.364469970703125,-7.676453496539592,6.30758038778305,1.7553411542996764
2024-12-04 21:58:03.600544800,1.374544677734375,-3.670991528499126,6.7752715492904185,1.8225857215330004
2024-12-04 21:58:03.610619000,1.384618896484375,-1.5372259343802928,6.584965250533819,1.852842328108847
2024-12-04 21:58:03.620693800,1.39469384765625,-0.1800742430776357,6.391684904402494,2.290223983809352
2024-12-04 21:58:03.630769000,1.404768798828125,0.057688218858838,7.172786766287684,2.607302559044957
2024-12-04 21:58:03.640843800,1.41484375,0.7111088727265596,7.790970102557539,2.4628134240895507
2024-12-04 21:58:03.650918000,1.42491796875,0.5141121364206075,8.238053360322118,4.227506051841378
2024-12-04 21:58:03.660992800,1.43499267578125,0.9497948792487382,7.835756754267215,6.424073262310028
2024-12-04 21:58:03.671067600,1.445067626953125,2.4258219563007355,7.36145932636261,7.933013013404607
2024-12-04 21:58:03.681142800,1.455142822265625,4.365565738271177,6.753053287741541,8.67166280400753
2024-12-04 21:58:03.691217700,1.4652177734375,7.732472320881485,5.762191069567203,8.389961831623316
2024-12-04 21:58:03.701291800,1.475291748046875,11.246614999067782,5.603698543700576,7.752924741801619
2024-12-04 21:58:03.711367000,1.485366943359375,13.203486733710765,6.152185243409872,7.089134085088968
2024-12-04 21:58:03.721441800,1.49544189453125,14.959298135870696,5.985508242043853,6.902735899686813
2024-12-04 21:58:03.731517000,1.505516845703125,15.964856987917422,5.710456790676712,6.962158979514241
2024-12-04 21:58:03.741590800,1.5155908203125,15.6556799795866,5.77691166883707,7.197983751386404
2024-12-04 21:58:03.751666000,1.525666015625,14.579325005304812,5.76844370022118,7.148245614749193
2024-12-04 21:58:03.761740800,1.53574072265625,11.713628115183116,6.280172156375646,6.70391311699748
2024-12-04 21:58:03.771815700,1.545815673828125,7.304212421530485,6.620762540102005,6.074172613924741
2024-12-04 21:58:03.781889800,1.555889892578125,3.434714336684346,5.946060028752684,5.128282925420999
2024-12-04 21:58:03.791964700,1.565964599609375,0.3178957368373871,5.271145335957407,3.895396496212482
2024-12-04 21:58:03.802039800,1.576039794921875,-2.638081143668294,4.593348657985032,2.271213578391075
2024-12-04 21:58:03.812114700,1.58611474609375,-5.447752195185423,3.594927694994211,0.9534387887090444
2024-12-04 21:58:03.822189800,1.59618994140625,-8.569987559384106,3.711673082977533,0.0054711248874664
2024-12-04 21:58:03.832263700,1.606263671875,-13.80024383559227,4.443733850578964,-0.0578168136745691
2024-12-04 21:58:03.842338800,1.6163388671875,-17.118076590692997,5.499705669784546,-1.2513017913430928
2024-12-04 21:58:03.852414000,1.6264140625,-19.77093386321068,5.316617631843686,-2.785416900226473
2024-12-04 21:58:03.862488800,1.63648876953125,-20.93340294036865,3.6236388256937264,-5.21138498699963
2024-12-04 21:58:03.872563000,1.64656298828125,-19.65835962343216,1.5060042821645736,-8.950639904385804
2024-12-04 21:58:03.882637800,1.656637939453125,-16.946363933247326,-0.424314961117506,-15.5591099491477
2024-12-04 21:58:03.892712700,1.666712646484375,-13.108406065046786,-3.3409786528885363,-19.634132360148428
2024-12-04 21:58:03.902787600,1.67678759765625,-9.008308249500391,-6.528198822695017,-19.650061750686167
2024-12-04 21:58:03.912862000,1.686862060546875,-5.376337064269185,-8.63070418615341,-17.27340509957075
2024-12-04 21:58:03.922936600,1.6969365234375,-2.203527112609148,-8.596441851067542,-17.110020710009337
2024-12-04 21:58:03.933011700,1.70701171875,3.4725837563514705,-6.207936356726289,-19.885780724096296
2024-12-04 21:58:03.943086800,1.7170869140625,11.491306383484602,-5.400792291089892,-21.05034005153179
2024-12-04 21:58:03.953160700,1.72716064453125,17.55477757065296,-6.475882944524288,-19.276793086194992
2024-12-04 21:58:03.963235800,1.73723583984375,26.16727740707397,-6.81049776097238,-16.91508149075508
2024-12-04 21:58:03.973310700,1.747310791015625,23.04948207114935,-7.182198153233528,-10.35766475688219
2024-12-04 21:58:03.983385900,1.7573857421875,8.139919149306417,-7.520532282465695,-4.775457914021611
2024-12-04 21:58:03.993461000,1.7674609375,-5.671098593756557,-9.177477067682146,-1.8832219765424727
2024-12-04 21:58:04.003534800,1.777534912109375,3.7945869285076856,-4.088273814500868,-1.6610083813935517
2024-12-04 21:58:04.013610000,1.78760986328125,7.079110703724623,1.3552990491732957,-1.20052262122035
2024-12-04 21:58:04.023684900,1.797684814453125,2.307363919180632,-0.622742314748466,1.1369091039657593
2024-12-04 21:58:04.033759700,1.807759765625,0.7750058830976486,-0.4420499397724866,4.611363914886117
2024-12-04 21:58:04.043833900,1.817833740234375,0.5924306169845164,0.4433788502886891,3.8970612145543098
2024-12-04 21:58:04.053908700,1.82790869140625,-0.5006640413045883,0.4745718609318137,0.5891033722579478
2024-12-04 21:58:04.063983600,1.837983642578125,-0.6843934458889067,-0.3724992875538766,-1.326189566805959
2024-12-04 21:58:04.074058800,1.848058837890625,-0.4826128363072872,-2.4557611674904822,-2.422707039150596
2024-12-04 21:58:04.084132600,1.858132568359375,1.465560043573379,-1.733211447817087,-5.285898083931207
2024-12-04 21:58:04.094207700,1.868207763671875,-1.7927143148824571,-6.624978696492314,-2.3929577975749967
2024-12-04 21:58:04.104283000,1.878282958984375,-0.962922948630154,-4.628411788059771,-1.2437637970536946
2024-12-04 21:58:04.114357800,1.888357666015625,-2.981339285299182,-4.764143616063892,-0.7539572498500346
2024-12-04 21:58:04.124432000,1.898431884765625,-5.887199258983135,-3.395520974937081,-1.7613082460105418
2024-12-04 21:58:04.134506800,1.9085068359375,-7.0276225085496895,-2.5701903874859213,-1.987510618534684
2024-12-04 21:58:04.144582000,1.918581787109375,-7.434370248794555,-2.2865783207833767,-3.3816689751952884
2024-12-04 21:58:04.154656800,1.92865673828125,-7.568947061544656,-0.8728723830878734,-3.752878369069099
2024-12-04 21:58:04.164731000,1.93873095703125,-8.133090180069207,0.9945978975713252,-1.3405582838982344
2024-12-04 21:58:04.174805800,1.9488056640625,-7.1135992487818,3.045798897989094,1.6005279014676808
2024-12-04 21:58:04.184880600,1.958880615234375,-8.621379308447242,4.298742611320317,5.474454324150085
2024-12-04 21:58:04.194955800,1.968955810546875,-6.68172057441175,8.889355706861615,6.0481210578233
2024-12-04 21:58:04.205030700,1.97903076171875,-3.462522381064296,10.964313138180971,6.013259587800502
2024-12-04 21:58:04.215104800,1.989104736328125,-1.012864206624031,10.170600216525791,6.847020442205667
2024-12-04 21:58:04.225179600,1.9991796875,2.013374543109536,8.503449679115414,8.02568019118607
2024-12-04 21:58:04.235254800,2.0092548828125,3.4677234568387267,8.790596057423949,6.59867170432508
2024-12-04 21:58:04.245330000,2.019329833984375,5.129889191573858,10.137693972223996,4.293051998463273
2024-12-04 21:58:04.255403800,2.02940380859375,4.340139328330755,9.01584916639924,3.745671214169264
2024-12-04 21:58:04.265479000,2.03947900390625,4.035211794137955,7.900418903791904,2.955819059595465
2024-12-04 21:58:04.275553800,2.0495537109375,3.240353209578991,5.282971967351436,5.868464163374901
2024-12-04 21:58:04.285628700,2.059628662109375,3.231248112103343,6.585922697389125,2.731166839122772
2024-12-04 21:58:04.295702800,2.069702880859375,1.4707786550045012,6.400507093283534,-2.339214516949653
2024-12-04 21:58:04.305777700,2.079777587890625,-0.0884463452160358,7.01934217146039,-9.559231820967794
2024-12-04 21:58:04.315852800,2.089852783203125,-2.709585121911764,4.247366644348204,-12.289673268425464
2024-12-04 21:58:04.325927700,2.099927734375,-1.577242887470126,1.567196417491138,-12.057994510316847
2024-12-04 21:58:04.336001800,2.110001708984375,0.626425679436326,-0.1251534431055188,-9.838955355799198
2024-12-04 21:58:04.346076700,2.12007666015625,1.0681623154759403,-1.9399352128893133,-9.623434536287188
2024-12-04 21:58:04.356151800,2.13015185546875,3.1178906129926443,-3.279206671847403,-11.55952827131748
2024-12-04 21:58:04.366226700,2.140226806640625,6.822711930379271,-5.025895733135938,-13.530434376531838
2024-12-04 21:58:04.376300300,2.15030029296875,10.00589013131857,-6.760619923603534,-13.86598267443776
2024-12-04 21:58:04.386375400,2.16037548828125,10.662994442135094,-6.6898273084998126,-11.909970186972618
2024-12-04 21:58:04.396450600,2.170450439453125,9.738387780156732,-4.203596183943748,-9.676616091376545
2024-12-04 21:58:04.406525400,2.180525390625,6.715410662567615,-0.6828647750169038,-8.300045413854718
2024-12-04 21:58:04.416599600,2.190599609375,2.7503552314564583,0.9258955327451228,-8.254002040082216
2024-12-04 21:58:04.426674400,2.20067431640625,-2.952484362214804,2.2061668134629726,-8.802188880062102
2024-12-04 21:58:04.436749600,2.21074951171875,-7.092883208489417,1.5887416020840406,-12.27858371913433
2024-12-04 21:58:04.446824400,2.220824462890625,0.3017234774544834,-2.6916771247774363,-14.458165308010578
2024-12-04 21:58:04.456898600,2.230898681640625,-3.7614439528405663,-1.3336843064755202,-17.766466849178073
2024-12-04 21:58:04.466973400,2.240973388671875,-4.5931800234198565,1.398463360378146,-19.097386951637265
2024-12-04 21:58:04.477048300,2.25104833984375,6.380929117110371,3.75589859367311,-10.78357546275854
2024-12-04 21:58:04.487123500,2.26112353515625,8.956122719711065,3.333303880476952,-3.117596598482132
2024-12-04 21:58:04.497197300,2.271197265625,10.48595795931816,-1.5997043101251125,-5.3785038869142525
2024-12-04 21:58:04.507272400,2.2812724609375,8.317529048097134,-2.315555993464589,-0.047522214153409
2024-12-04 21:58:04.517347300,2.291347412109375,6.170609373372793,1.050095328387618,3.624047406494617
2024-12-04 21:58:04.527422500,2.30142236328125,0.1155078090123832,0.8835393230527638,10.426327374219891
2024-12-04 21:58:04.537496300,2.311496337890625,0.629534751367569,0.8575017954766749,15.532206744652983
2024-12-04 21:58:04.547571500,2.321571533203125,1.9226824647933245,-1.4201234035223722,19.57502316857576
2024-12-04 21:58:04.557646600,2.331646484375,0.1324146662801504,-0.4377338301390409,24.440001194524765
2024-12-04 21:58:04.567721500,2.341721435546875,-0.435296081598103,3.064937313701212,29.416765524744985
2024-12-04 21:58:04.577795600,2.351795654296875,1.3629253062680362,5.91337531824708,30.059971074068542
2024-12-04 21:58:04.587870500,2.361870361328125,3.7483646910369393,4.060876981270313,26.32645908424854
2024-12-04 21:58:04.597945300,2.3719453125,2.344456801517308,-0.2657639830619097,22.485226724421977
2024-12-04 21:58:04.608020500,2.3820205078125,-0.372751362618804,-3.905473653590679,19.71746413882971
2024-12-04 21:58:04.618094300,2.39209423828125,-0.790523770225048,-6.700896984046698,19.30174749470949
2024-12-04 21:58:04.628169500,2.40216943359375,-2.1836229732215404,-9.367804409226776,17.162652230000496
2024-12-04 21:58:04.638244400,2.412244384765625,-2.957683099901676,-9.164594205233454,13.369065418446064
2024-12-04 21:58:04.648319500,2.422319580078125,-0.0379824515875428,-4.136963026607036,10.811667584776878
2024-12-04 21:58:04.658393300,2.432393310546875,4.0792257079094645,0.2104886705636978,10.83874263870716
2024-12-04 21:58:04.668468500,2.442468505859375,7.785071692168712,0.3357897054463625,12.419554032313822
2024-12-04 21:58:04.678543400,2.45254345703125,10.535733505356312,0.2172276234298944,7.587015802198648
2024-12-04 21:58:04.688618500,2.462618408203125,14.442294369661807,3.993385161277652,3.2497046830311414
2024-12-04 21:58:04.698692600,2.472692626953125,18.58215896292925,6.779126471152901,4.498865370692313
2024-12-04 21:58:04.708767500,2.482767578125,17.172330743449926,6.292991305938362,7.371551096788048
2024-12-04 21:58:04.718842600,2.492842529296875,12.963684290379286,7.363232181254029,8.278674709045886
2024-12-04 21:58:04.728917200,2.502917236328125,8.746835241630674,9.774260473048686,8.55446324251592
2024-12-04 21:58:04.738991600,2.51299169921875,-0.1185480534911155,7.831694327133894,11.884462820750477
2024-12-04 21:58:04.749066200,2.523066162109375,7.343369542920589,7.345213124960661,10.46956328935623
2024-12-04 21:58:04.759141400,2.533141357421875,10.703886424493788,6.580068126142025,7.079810376426577
2024-12-04 21:58:04.769216500,2.543216552734375,13.49015029693842,8.321013967603445,3.2787323323339224
2024-12-04 21:58:04.779290400,2.553290283203125,14.885740732228754,9.681492757502198,1.0212553106114268
2024-12-04 21:58:04.789365500,2.563365478515625,13.46146663876772,10.170087006306648,0.4829483518719673
2024-12-04 21:58:04.799440400,2.5734404296875,9.683698158591984,9.3143066277951,0.2577093079546466
2024-12-04 21:58:04.809514500,2.583514404296875,5.406796499940753,7.838994421014189,0.2180795275514945
2024-12-04 21:58:04.819589400,2.59358935546875,2.1742869895994663,5.614962280514836,-0.0173931064147502
2024-12-04 21:58:04.829664500,2.60366455078125,-0.9390145420372484,4.487341813898087,-1.4614736510425803
2024-12-04 21:58:04.839739600,2.61373974609375,-3.3302415702968835,4.040872888639569,-2.6157655592247844
2024-12-04 21:58:04.849813500,2.6238134765625,-3.5349387979775666,3.405572997874021,-3.698103407308459
2024-12-04 21:58:04.859888600,2.633888671875,-6.110594757393002,3.648047290763259,-5.721484965169429
2024-12-04 21:58:04.869963500,2.643963623046875,-7.520657954671979,3.2818577708780765,-6.8726172402769325
2024-12-04 21:58:04.880038400,2.654038330078125,-5.745559668239951,2.9446424165427683,-6.775746765586733
2024-12-04 21:58:04.890112500,2.664112548828125,-1.3763964899986982,2.263085216993093,-6.412949810749292
2024-12-04 21:58:04.900187400,2.6741875,1.2921259691625833,3.486714573034644,-8.305427691414952
2024-12-04 21:58:04.910262300,2.68426220703125,0.8625041338086128,6.045930854302644,-11.466527331537009
2024-12-04 21:58:04.920337400,2.69433740234375,-0.5939028814941645,7.952782712757587,-13.584161290544271
2024-12-04 21:58:04.930411300,2.704411376953125,-5.571901721945404,9.425606025332211,-11.218057597625254
2024-12-04 21:58:04.940486400,2.714486328125,-14.347952536666392,8.71812060379982,-2.095682823961973
2024-12-04 21:58:04.950561500,2.7245615234375,-1.4552625214427708,1.9837240857332945,3.5678432887136933
2024-12-04 21:58:04.960635400,2.734635498046875,12.842366772174834,-3.8073271676152944,4.373720987676084
2024-12-04 21:58:04.970710500,2.74471044921875,12.94497023755908,-7.960064686459303,5.411232436561584
2024-12-04 21:58:04.980785400,2.754785400390625,7.059054588645696,-6.937887292566895,1.0588710477784276
2024-12-04 21:58:04.990860500,2.764860595703125,2.95514042968154,-4.925602882781624,0.365356576192379
2024-12-04 21:58:05.000934400,2.774934326171875,0.2592646841704845,-4.1798236786901946,2.052025468543172
2024-12-04 21:58:05.011009500,2.785009521484375,-1.6825065119743343,-2.893998270976544,2.542387896063924
2024-12-04 21:58:05.021084700,2.795084716796875,-3.625543782532215,-0.912349822473526,2.44887403832525
2024-12-04 21:58:05.031158500,2.805158447265625,-5.258095300248265,-0.499110966643691,5.070125920006633
2024-12-04 21:58:05.041233700,2.815233642578125,-5.227703084594011,-1.890944095227122,6.357236106833815
2024-12-04 21:58:05.051308300,2.825308349609375,-3.549291148456931,-2.186642613303661,3.719963649199903
2024-12-04 21:58:05.061383400,2.835383544921875,-2.8118074790239334,-0.9311217429608106,0.6714551999911665
2024-12-04 21:58:05.071457300,2.845457275390625,-3.6648663236171006,1.938472154599428,-2.5229414373159407
2024-12-04 21:58:05.081532400,2.855532470703125,-3.310276056110858,4.010431573146581,-5.003637724098563
2024-12-04 21:58:05.091607300,2.865607177734375,-2.1816624868035315,4.165135228124261,-5.531725778901577
2024-12-04 21:58:05.101682400,2.875682373046875,-0.835002378898859,4.347464556652307,-4.760407352145016
2024-12-04 21:58:05.111756300,2.88575634765625,-1.0037439115792512,2.231737308049202,-2.7632383861660954
2024-12-04 21:58:05.121831400,2.89583154296875,-1.8753069656342267,0.7415630477011204,-1.941492671464384
2024-12-04 21:58:05.131906600,2.905906494140625,-1.779926437240839,1.030516767692566,-3.0133985573828217
2024-12-04 21:58:05.141980400,2.91598046875,-2.9279408725887537,0.9044546853095292,-2.940196835310757
2024-12-04 21:58:05.152055600,2.9260556640625,-4.160263822695613,1.5852613587528466,-2.475554247719049
2024-12-04 21:58:05.162130400,2.93613037109375,-3.8217636892467737,2.728384514927864,-2.998391834647953
2024-12-04 21:58:05.172205600,2.94620556640625,-3.3266239643216133,3.446313004541397,-4.454287977819145
2024-12-04 21:58:05.182279400,2.956279541015625,-2.042148217651248,4.480647284695506,-3.7467771295845504
2024-12-04 21:58:05.192354600,2.9663544921875,-0.3711240536779165,4.569025240850448,-0.262450182338804
2024-12-04 21:58:05.202429400,2.976429443359375,0.9536422023266552,4.494747121718525,1.838409898130596
2024-12-04 21:58:05.212503600,2.986503662109375,2.856914448729157,6.372398604652285,1.868058455810696
2024-12-04 21:58:05.222578400,2.996578369140625,3.377141853159666,5.039599264317751,1.161027353917062
2024-12-04 21:58:05.232653300,3.0066533203125,4.407454622712731,-0.8621785551160573,1.6868879419289529
2024-12-04 21:58:05.242728400,3.016728515625,11.046219852495192,-0.2383048982501029,0.7453229847565292
2024-12-04 21:58:05.252802300,3.02680224609375,12.320218044292924,-1.8976684350460769,1.887999566207826
2024-12-04 21:58:05.262877400,3.03687744140625,5.07958582226932,-0.1455003578245639,2.857465652871132
2024-12-04 21:58:05.272952600,3.04695263671875,-1.4186457321852444,2.838972549325228,2.352689353942126
2024-12-04 21:58:05.283026400,3.0570263671875,-2.908577415949106,3.0058067870795724,0.3327861397162079
2024-12-04 21:58:05.293101600,3.0671015625,-4.774599835887551,2.8016367981433867,-0.6131403736665845
2024-12-04 21:58:05.303176400,3.077176513671875,-3.79802859339416,2.5583435900866984,-0.5224611548319459
2024-12-04 21:58:05.313251600,3.08725146484375,2.5452158129662275,3.256807500773668,0.2030029909834265
2024-12-04 21:58:05.323325400,3.097325439453125,5.206842082872987,1.1379185732692478,2.36726133852154
2024-12-04 21:58:05.333400600,3.107400634765625,4.068036789897084,3.239879162326455,1.8365768374845384
2024-12-04 21:58:05.343475500,3.117475341796875,-0.2792512411445379,6.258219267764687,0.820923292402923
2024-12-04 21:58:05.353549600,3.127549560546875,-4.216486645177007,4.209454846844077,1.7760025417953729
2024-12-04 21:58:05.363624400,3.13762451171875,-3.362346435087919,3.896216580423713,2.1862895620822904
2024-12-04 21:58:05.373699300,3.14769921875,1.839642947056889,3.5054496686428784,2.262149981969595
2024-12-04 21:58:05.383774000,3.15777392578125,5.626517109230161,1.6329957543522118,3.778187582370639
2024-12-04 21:58:05.393849000,3.16784912109375,5.136828635448217,1.956378982689977,5.204386506414413
2024-12-04 21:58:05.403924000,3.177924072265625,2.071178497302532,4.1860342237681145,5.38014990055561
2024-12-04 21:58:05.413999000,3.1879990234375,0.2112111396193504,6.094806236630678,6.484537960144877
2024-12-04 21:58:05.424073000,3.198072998046875,0.8248217611461878,6.20916326817274,7.977147338685393
2024-12-04 21:58:05.434148000,3.208148193359375,1.231066228044033,5.893510341826081,8.168945921826362
2024-12-04 21:58:05.444223000,3.218222900390625,1.264125324819982,5.211876569908857,6.023704409447312
2024-12-04 21:58:05.454297000,3.228297119140625,2.2065733484372494,3.5839328382492064,1.6211270373821258
2024-12-04 21:58:05.464372000,3.2383720703125,1.4909318007171153,-1.490264861240983,-0.9450678507268429
2024-12-04 21:58:05.474447000,3.248447021484375,4.8748541077971455,-4.795431611514092,-3.9975475416541095
2024-12-04 21:58:05.484522000,3.25852197265625,10.308785867422818,-4.108605531650781,-9.727724931845067
2024-12-04 21:58:05.494596000,3.26859619140625,13.652118974483011,-5.790207788261771,-16.38258906351328
2024-12-04 21:58:05.504671000,3.2786708984375,7.951264124888181,-9.98781671448946,-15.712262867552042
2024-12-04 21:58:05.514745900,3.288745849609375,4.319573217903077,-11.818946100223064,-12.798071703374385
2024-12-04 21:58:05.524820000,3.298820068359375,2.5286367263481018,-10.592100120222568,-12.194633516293765
2024-12-04 21:58:05.534894800,3.308894775390625,-1.7007202140569686,-9.629914545956254,-8.835069989922642
2024-12-04 21:58:05.544970000,3.318969970703125,-4.857713003382086,-8.297963346883654,-5.951442306312918
2024-12-04 21:58:05.555043800,3.3290439453125,-7.053874555659294,-5.863752916944026,-4.398050250029564
2024-12-04 21:58:05.565119000,3.339118896484375,-8.12334970729947,-4.238043227946758,-2.582001529049873
2024-12-04 21:58:05.575194000,3.349194091796875,-8.344527529659867,-4.415957662642001,-0.1097720418393611
2024-12-04 21:58:05.585269000,3.35926904296875,-6.128195296013355,-3.8646266794174906,2.347365674701333
2024-12-04 21:58:05.595343000,3.369343017578125,-3.113340110081434,-4.055905038076639,4.874224577721953
2024-12-04 21:58:05.605418000,3.37941796875,-0.7345774265974759,-2.4217452083811164,6.801007463571429
2024-12-04 21:58:05.615493000,3.3894931640625,0.703420656311512,-0.8084814517199993,7.904906278339028
2024-12-04 21:58:05.625567000,3.39956689453125,1.2781529733896255,-0.4472770267710089,9.87259575959444
2024-12-04 21:58:05.635642000,3.40964208984375,1.0243827949821949,-0.242274532533437,10.892103642016648
2024-12-04 21:58:05.645717200,3.41971728515625,0.921029388013482,0.3195357591293752,10.745962648200988
2024-12-04 21:58:05.655791000,3.429791015625,1.724638265261054,1.5614644497103989,9.269272723326086
2024-12-04 21:58:05.665866200,3.4398662109375,2.6921763064712283,2.4878853215038776,7.460159939089417
2024-12-04 21:58:05.675940900,3.44994091796875,3.7748312576800576,2.2930859491117297,5.603478763470053
2024-12-04 21:58:05.686015200,3.46001513671875,4.392943282279372,1.060924327046424,4.742287465825677
2024-12-04 21:58:05.696089900,3.47008984375,3.9538019234299657,0.0531282174669206,4.347537037366628
2024-12-04 21:58:05.706165000,3.4801650390625,3.797437641763687,-0.6472776210680603,3.934119902360439
2024-12-04 21:58:05.716240000,3.490239990234375,3.5753789449155327,-1.1032530642099678,3.44147725494802
2024-12-04 21:58:05.726314000,3.50031396484375,3.4577263789594173,-0.7377573718078434,3.120850631842017
2024-12-04 21:58:05.736388900,3.510388916015625,3.6891017702072855,0.4351521430827677,2.9055770650893447
2024-12-04 21:58:05.746464000,3.520464111328125,3.024788550925255,1.665777933882922,2.734868031728268
2024-12-04 21:58:05.756537900,3.530537841796875,2.3209949696481225,2.2488982862085103,2.1590835752487183
2024-12-04 21:58:05.766613000,3.540613037109375,1.616151002535224,2.017133895643055,1.620425903375447
2024-12-04 21:58:05.776688000,3.550688232421875,1.493124926847219,1.8029174367278813,1.2234440626025198
2024-12-04 21:58:05.786762000,3.560761962890625,1.429557002300024,2.268539683006704,0.6975187387913465
2024-12-04 21:58:05.796837000,3.570837158203125,1.320754097753763,1.834567105097324,-0.26309622515738
2024-12-04 21:58:05.806912000,3.580912109375,-0.1649801343202591,1.2165724232673645,-1.3431781110078096
2024-12-04 21:58:05.816986000,3.590986083984375,-0.854146639829874,1.206729366905987,-1.8220453310459848
2024-12-04 21:58:05.827061000,3.60106103515625,-0.5068722482949495,1.429651256454736,-2.2324092159613964
2024-12-04 21:58:05.837136100,3.61113623046875,-0.6698942342847586,1.496580766389519,-2.5909216253474354
2024-12-04 21:58:05.847211000,3.6212109375,-0.9221481629103422,1.82382213146016,-2.7697937991589305
2024-12-04 21:58:05.857285000,3.63128515625,-1.015934115588665,2.67192934499532,-3.48556598752141
2024-12-04 21:58:05.867360000,3.641360107421875,-1.5333651672989128,3.0163252584844824,-2.844824782484769
2024-12-04 21:58:05.877435000,3.651434814453125,-1.69739779163599,3.0497631254449487,-1.838546968513727
2024-12-04 21:58:05.887509000,3.661509033203125,-1.2780711403250693,1.748530305241048,0.0863756764218211
2024-12-04 21:58:05.897583900,3.671583984375,-1.3696984536647796,-0.7484276727735996,2.711329042969644
2024-12-04 21:58:05.907659000,3.681658935546875,-2.0078999110907314,-2.7917867275193333,4.210908260522783
2024-12-04 21:58:05.917732900,3.69173291015625,-0.944860345456004,-2.195791257660091,2.653484464505315
2024-12-04 21:58:05.927808000,3.70180810546875,0.6345487801373004,1.323973352061212,-0.8671145502135157
2024-12-04 21:58:05.937883100,3.711883056640625,0.098235333302617,2.3632344210930167,-2.6857313681155444
2024-12-04 21:58:05.947957000,3.72195703125,-1.675445487546921,1.973512196059525,-3.4503181485295293
2024-12-04 21:58:05.958032100,3.7320322265625,-2.5969261264592407,0.8959025455415248,-2.33355166888237
2024-12-04 21:58:05.968107000,3.74210693359375,-3.050383010908961,0.8226397409319877,-2.148188379485905
2024-12-04 21:58:05.978181000,3.75218115234375,-3.7215105863809583,1.3754431347966194,-2.3768369761183856
2024-12-04 21:58:05.988256000,3.762256103515625,-3.1186697806715964,0.7597863943949341,-1.9520044208675624
2024-12-04 21:58:05.998331100,3.7723310546875,-2.205194753560424,0.6395085945017636,-2.3871143322438
2024-12-04 21:58:06.008405000,3.782405029296875,-1.585247330227494,0.2743821738034486,-2.95971752833873
2024-12-04 21:58:06.018480000,3.792480224609375,-0.5879010107308625,0.0460631013862788,-3.2012130393236875
2024-12-04 21:58:06.028555000,3.802554931640625,0.3221726835042238,0.8284796991318464,-2.887918951062858
2024-12-04 21:58:06.038629000,3.812629150390625,0.1954886698305606,1.7627648745596407,-2.4612945439592004
2024-12-04 21:58:06.048704000,3.8227041015625,-0.8255547515958547,1.884983725517988,-2.4977917984902858
2024-12-04 21:58:06.058779000,3.83277880859375,-2.082363323661685,1.9002210421383376,-2.940289189769328
2024-12-04 21:58:06.068854000,3.84285400390625,-3.713849257972836,1.87914858962372,-3.1997204626783726
2024-12-04 21:58:06.078928000,3.852927978515625,-4.946427059623598,1.9149220599249004,-2.61627701587826
2024-12-04 21:58:06.089003000,3.8630029296875,-4.653101700419187,1.907619335696101,-1.3775073738500474
2024-12-04 21:58:06.099078000,3.873077880859375,-3.164100575503707,1.6626123094588516,-0.5702414353996514
2024-12-04 21:58:06.109152000,3.883152099609375,-1.3942548027724029,1.2117508483298125,0.0455295790314674
2024-12-04 21:58:06.119227000,3.893226806640625,0.363821621710062,0.6579262947238982,-0.1511743118077516
2024-12-04 21:58:06.129302000,3.903302001953125,1.158134847345948,0.3340484878022223,0.6350087988644838
2024-12-04 21:58:06.139375900,3.9133759765625,2.4030624274820087,0.4882491616938263,1.2154077634021638
2024-12-04 21:58:06.149451000,3.923450927734375,2.8709108253777025,0.3558568533759564,0.1029936337456107
2024-12-04 21:58:06.159526100,3.933526123046875,2.2302146285265683,-0.3031979339212179,-0.2441442719280719
2024-12-04 21:58:06.169600000,3.94360009765625,1.759981965842843,-0.7090697681143879,-0.1294961484849452
2024-12-04 21:58:06.179675100,3.953675048828125,1.2276093655884266,-0.5011622000850737,-0.353487566961348
2024-12-04 21:58:06.189750000,3.96375,0.2149018108308315,-0.1353561996247619,-0.6437509082466364
2024-12-04 21:58:06.199824100,3.97382421875,-0.5033440741688012,0.1311621089357882,-0.8906532467111945
2024-12-04 21:58:06.209899000,3.98389892578125,-0.5487678547382354,0.2641398889914155,-0.7378624396175145
2024-12-04 21:58:06.219974100,3.99397412109375,-0.0482820926100015,0.3788273945968597,-0.2701066884413361
2024-12-04 21:58:06.230048000,4.004048095703125,0.9453805699378252,0.3743460113991051,0.2348074115231633
2024-12-04 21:58:06.240123100,4.014123046875,1.785595715048909,0.1792247135762125,0.5476332977503537
2024-12-04 21:58:06.250198000,4.024197998046875,2.2081313915342093,-0.043795887106657,0.635316257378459
2024-12-04 21:58:06.260272000,4.034272216796875,2.220427394005656,-0.1539148426875472,0.4676695341974496
2024-12-04 21:58:06.270347000,4.044346923828125,1.975550716149807,-0.3228416688069701,0.1534045550778508
2024-12-04 21:58:06.280422000,4.054421875,1.852894642817974,-0.4419005213644355,-0.1112052895128726
2024-12-04 21:58:06.290496000,4.06449609375,1.8667326140344145,-0.4145092410918325,-0.0165752872258424
2024-12-04 21:58:06.300571000,4.07457080078125,1.7185779423087837,-0.2715902049973607,0.1749398027986288
2024-12-04 21:58:06.310646000,4.08464599609375,1.400015265995264,-0.1450225842449814,0.3864841198951005
2024-12-04 21:58:06.320720000,4.094719970703125,1.194569850295782,-0.003661883508414,0.6125856623932718
2024-12-04 21:58:06.330795000,4.104794921875,1.1650240223377943,0.2074605549141764,0.8560594877138733
2024-12-04 21:58:06.340870100,4.1148701171875,1.2874603154391049,0.1383897951669991,1.1098422333419322
2024-12-04 21:58:06.350944000,4.124944091796875,1.5108593209803105,0.0042374183740466,1.213655074515939
2024-12-04 21:58:06.361019100,4.13501904296875,1.6273942810833453,0.0810416949827224,1.05346685064733
2024-12-04 21:58:06.371094000,4.145093994140625,1.6909066760510203,-0.00967003788203,0.7136456977277994
2024-12-04 21:58:06.381167400,4.15516748046875,1.9617729506880044,-0.2377192803818732,0.555329697471857
2024-12-04 21:58:06.391242500,4.165242431640625,2.1277643078774213,-0.449117686201632,0.5035375509142875
2024-12-04 21:58:06.401317400,4.1753173828125,2.1205559839338064,-0.5663320799361914,0.4955772395595907
2024-12-04 21:58:06.411391500,4.1853916015625,2.037266290828585,-0.5707114640641957,0.3619207565248012
2024-12-04 21:58:06.421466400,4.19546630859375,1.6718296351373194,-0.5084478270485997,0.0576844194665551
2024-12-04 21:58:06.431541500,4.20554150390625,1.3602829750657082,-0.3721921213008463,-0.1597457407981157
2024-12-04 21:58:06.441615400,4.215615478515625,1.076373094460368,-0.2359831042390316,-0.2023079944565892
2024-12-04 21:58:06.451690500,4.2256904296875,0.8409592414766549,-0.1552891267154365,-0.0527595302850008
2024-12-04 21:58:06.461765600,4.235765625,0.6875532250940799,-0.0725068716756999,-0.0125786188051104
2024-12-04 21:58:06.471839500,4.245839599609375,0.6339040524929761,-0.1507923998180776,0.0633347003132104
2024-12-04 21:58:06.481914600,4.25591455078125,0.6308528482288122,-0.3627439094759523,0.1323664432242512
2024-12-04 21:58:06.491989200,4.2659892578125,0.6142097564637661,-0.4019127213038503,0.0321831907242536
2024-12-04 21:58:06.502063600,4.276063720703125,0.487900421321392,-0.3292715557239949,0.0009665069445967
2024-12-04 21:58:06.512138200,4.28613818359375,0.0982405939996242,-0.3196928493872285,-0.0523310757398605
2024-12-04 21:58:06.522213400,4.29621337890625,-0.2256155125468969,-0.4697884991127997,-0.218796772442758
2024-12-04 21:58:06.532287200,4.306287353515625,-0.1637584835708141,-0.1066713724102824,-0.2331067450851202
2024-12-04 21:58:06.542362400,4.3163623046875,0.3570066809982061,-0.1205162117589265,0.0542874705046415
2024-12-04 21:58:06.552437500,4.3264375,0.661614481717348,-0.528247921539843,0.2276224684551358
2024-12-04 21:58:06.562511400,4.336511474609375,0.9607873979061842,-0.8563504334844648,0.3199205206632614
2024-12-04 21:58:06.572586500,4.34658642578125,0.9468944816321134,-0.6204788998611271,-0.1367880590587854
2024-12-04 21:58:06.582660400,4.356660400390625,0.9041799600213766,-0.2310526620995253,-0.5535837305873632
2024-12-04 21:58:06.592735500,4.366735595703125,0.4994143335044383,-0.573879572706297,-0.4519873964190483
2024-12-04 21:58:06.602810400,4.376810302734375,0.0243786544531583,-0.6252556858088821,-0.3041071577206254
2024-12-04 21:58:06.612884500,4.386884521484375,-0.2413976035684347,-0.4493392199978232,-0.4651888232976198
2024-12-04 21:58:06.622959400,4.39695947265625,-0.4768611409127712,-0.2687373728495091,-0.5613815448567271
2024-12-04 21:58:06.633034500,4.407034423828125,-0.6234048703104257,-0.3089134620238095,-0.4143814499936997
2024-12-04 21:58:06.643108400,4.4171083984375,-0.3923521351456642,-0.3785448513284325,-0.4882186934903263
2024-12-04 21:58:06.653183500,4.42718359375,-0.1052595328509807,-0.3932924847356975,-0.6760125710345805
2024-12-04 21:58:06.663258600,4.437258544921875,0.0363689519762992,-0.4086652643039822,-0.966561597393453
2024-12-04 21:58:06.673332500,4.44733251953125,-0.1264735857933759,-0.4165077214326709,-1.0758134147509932
2024-12-04 21:58:06.683407600,4.45740771484375,-0.3744692724525928,-0.3301320450108498,-1.0999129600018265
2024-12-04 21:58:06.693482500,4.467482421875,-0.780711985784769,-0.3673144322618842,-1.1504741034597157
2024-12-04 21:58:06.703556600,4.477556640625,-0.8246177630066871,-0.3312003318294882,-0.8706552915602922
2024-12-04 21:58:06.713631500,4.487631591796875,-0.4033972607731819,-0.3674298753350973,-0.3910124109745025
2024-12-04 21:58:06.723706400,4.497706298828125,0.0743640438497066,-0.3223792389269918,-0.2739814840480685
2024-12-04 21:58:06.733780500,4.507780517578125,0.2237923887729644,-0.0817164524391293,-0.4133694964721798
2024-12-04 21:58:06.743855400,4.51785546875,0.0491845944076776,-0.1192404196694493,-0.2958332503721118
2024-12-04 21:58:06.753930200,4.52793017578125,-0.4194967471808195,-0.6513236815884709,-0.580779780548811
2024-12-04 21:58:06.764004400,4.53800439453125,-0.0519692566901445,-0.848255974356085,-0.6645578416928648
2024-12-04 21:58:06.774079500,4.54807958984375,0.514467525729537,-0.5624868757501245,-1.4203803008928897
2024-12-04 21:58:06.784153300,4.5581533203125,0.2503460491776466,-0.6918393779806792,-1.4497335288882254
2024-12-04 21:58:06.794228500,4.568228515625,0.3261006706029176,-1.0092608483698218,-1.5285036987423897
2024-12-04 21:58:06.804303400,4.578303466796875,0.5880237603276968,-1.405841487930715,-1.4018769682139158
2024-12-04 21:58:06.814377500,4.58837744140625,0.6121726976782084,-1.5865778481788932,-1.1624664468094703
2024-12-04 21:58:06.824452400,4.598452392578125,0.7283125209838152,-1.395082193507254,-1.2986609238892792
2024-12-04 21:58:06.834527500,4.608527587890625,0.8344500057131051,-1.105596339400485,-1.3605708520963786
2024-12-04 21:58:06.844601300,4.618601318359375,0.5885276181966066,-0.9349282225716858,-1.2414809468135235
2024-12-04 21:58:06.854676500,4.628676513671875,-0.0692448011398315,-0.986781232471019,-1.308594581143558
2024-12-04 21:58:06.864751400,4.63875146484375,-0.0416489382058382,-0.8494768213879317,-1.3989505593732
2024-12-04 21:58:06.874825500,4.648825439453125,0.7156237198024987,-0.2940196250788867,-1.22501058126688
2024-12-04 21:58:06.884900400,4.658900390625,1.3503250601530077,0.1065907083895057,-0.7550605349168181
2024-12-04 21:58:06.894975500,4.6689755859375,0.951436216714978,0.7251348407957703,-0.7917422061040997
2024-12-04 21:58:06.905049600,4.679049560546875,-0.373213719433546,0.2406909531364217,0.1289499127790331
2024-12-04 21:58:06.915124500,4.68912451171875,-0.3455430376976728,0.6475242162402719,-0.0081049805223941
2024-12-04 21:58:06.925199600,4.69919970703125,-0.3859381764501333,2.122848771046102,0.9438660737216472
2024-12-04 21:58:06.935273500,4.7092734375,-1.6389976251155136,2.4843355200678108,0.8008551946252584
2024-12-04 21:58:06.945348600,4.7193486328125,-2.930636103022098,2.9026939108684657,0.6473065549015998
2024-12-04 21:58:06.955422500,4.72942236328125,-4.138671584090591,2.342360706020892,0.7889464379057288
2024-12-04 21:58:06.965497600,4.73949755859375,-4.899215226593613,1.9289844875469804,-1.05220866727978
2024-12-04 21:58:06.975572200,4.749572265625,-5.097381591200828,1.823395868872106,-1.3495394627332686
2024-12-04 21:58:06.985646600,4.759646484375,-5.087490896305441,2.827145625670254,-0.7217600306004286
2024-12-04 21:58:06.995721200,4.76972119140625,-4.492608940646052,2.754847574439645,0.4022545204788446
2024-12-04 21:58:07.005796400,4.77979638671875,-3.816951320528984,2.187094156463444,1.2530831218019127
2024-12-04 21:58:07.015870200,4.7898701171875,-3.422569140860438,1.4991719519264994,1.2086211720019575
2024-12-04 21:58:07.025945300,4.7999453125,-3.1851503777951,1.1326679592646658,0.8215121982067823
2024-12-04 21:58:07.036020500,4.8100205078125,-3.3977135165452954,0.9007876872345804,0.2132519977971911
2024-12-04 21:58:07.046094300,4.82009423828125,-3.256030086660385,0.9004865123309195,-0.2171709248065948
2024-12-04 21:58:07.056169500,4.83016943359375,-2.483731124433875,1.2680685094878077,-0.2770256740495562
2024-12-04 21:58:07.066243300,4.840243408203125,-2.7730583539128304,0.2953632947728037,0.0089852704882621
2024-12-04 21:58:07.076318500,4.850318359375,-1.6374544873267411,0.0849997118934988,0.3091501203238964
2024-12-04 21:58:07.086393300,4.860393310546875,-0.8896697886317968,-0.2489551793411374,0.4800234043359756
2024-12-04 21:58:07.096467500,4.870467529296875,-0.7650883001953362,-0.5772358243316411,0.3221159848809242
2024-12-04 21:58:07.106542300,4.880542236328125,-0.5819739587694406,-1.1389743659324942,0.3351262731015682
2024-12-04 21:58:07.116617500,4.890617431640625,0.4777981295019388,-1.1352627980634569,0.1954775639146566
2024-12-04 21:58:07.126691300,4.90069140625,1.5772358732074498,-0.7826276101477444,0.036928923946619
2024-12-04 21:58:07.136766500,4.910766357421875,2.242162840473652,-0.5956082241073251,-0.100676588974893
2024-12-04 21:58:07.146841600,4.920841552734375,2.114773308879137,-0.6583845598854124,0.0036330958053469
2024-12-04 21:58:07.156915500,4.93091552734375,2.326999763020873,-0.1073649806976318,-1.1313175675690172
2024-12-04 21:58:07.166990600,4.940990478515625,1.552885860326886,0.8065873085364699,-1.3371703950256109
2024-12-04 21:58:07.177065500,4.9510654296875,1.1696616190105675,0.1773226062819361,-0.7971575091511011
2024-12-04 21:58:07.187139600,4.9611396484375,0.7975245888978243,-1.693339163894951,0.0597572802178561
2024-12-04 21:58:07.197214500,4.97121435546875,0.7485147665351629,-2.336870876432956,0.785662740059942
2024-12-04 21:58:07.207288600,4.98128857421875,1.0119552750855685,-1.8591729924350973,1.0295976070210338
2024-12-04 21:58:07.217363500,4.991363525390625,1.3882616998374462,-1.313789373307675,1.104395073851943
2024-12-04 21:58:07.227438300,5.001438232421875,1.5693734692692756,-0.927858211120218,1.0820420800074937
2024-12-04 21:58:07.237512400,5.011512451171875,1.8641303225815296,0.0832126823462545,0.3396133553877473
2024-12-04 21:58:07.247587300,5.02158740234375,1.6780904490977524,0.7413689864337444,0.0360763987705111
2024-12-04 21:58:07.257662500,5.031662353515625,1.8343962785750627,-0.8336591475963592,1.2216548410981891
2024-12-04 21:58:07.267736300,5.041736328125,1.4093413127452137,-0.6115476976476609,1.7182026792556049
2024-12-04 21:58:07.277811500,5.0518115234375,0.1135533139437437,-0.8959037145853042,2.9580305981650947
2024-12-04 21:58:07.287886300,5.06188623046875,-1.0951701493889092,-1.91879247161746,1.9432434606544675
2024-12-04 21:58:07.297960400,5.07196044921875,-0.8538666538447142,-2.1348140802584585,0.9134552994973956
2024-12-04 21:58:07.308035300,5.082035400390625,0.4301069885224103,-1.900983843204379,0.4451807851441204
2024-12-04 21:58:07.318110500,5.0921103515625,1.168786589741707,-1.2108344641372562,-0.0733364178350195
2024-12-04 21:58:07.328184300,5.102184326171875,1.2631231620401144,-0.5432418578583746,-0.3447702997595072
2024-12-04 21:58:07.338259500,5.112259521484375,1.3278794195890429,0.1258311962366104,-0.3172327063513919
2024-12-04 21:58:07.348334600,5.12233447265625,0.9371014018923044,1.2977248120829463,-0.4805697861723602
2024-12-04 21:58:07.358408400,5.132408447265625,0.1985620859265327,2.939139142951369,-0.1458154881883412
2024-12-04 21:58:07.368483600,5.142483642578125,2.163766180106997,3.58465355373919,0.4771021831270307
2024-12-04 21:58:07.378558500,5.152558349609375,2.624983177164197,3.4835990713626144,-0.5922030918389558
2024-12-04 21:58:07.388632000,5.162632080078125,2.51828045976758,2.000102973604202,-1.0435206261724232
2024-12-04 21:58:07.398707000,5.17270703125,3.0090356859982013,0.0853476485483348,-0.2487899788420647
2024-12-04 21:58:07.408782000,5.182781982421875,3.35967750813961,-0.9115301766537128,0.6329968014549464
2024-12-04 21:58:07.418856200,5.192856201171875,2.6542572024434805,-1.648216850490123,0.6280324570458382
2024-12-04 21:58:07.428931000,5.20293115234375,1.774763939911127,-1.6342428318038582,-0.1963555157929658
2024-12-04 21:58:07.439006200,5.213006103515625,1.5112193864643573,-1.2489973137930035,-0.2474289196219295
2024-12-04 21:58:07.449080000,5.223080078125,1.4282973576277491,-1.001569782410562,-0.5412115941397846
2024-12-04 21:58:07.459155200,5.2331552734375,1.0038678302198647,-0.6676487934455275,-0.8908404398463666
2024-12-04 21:58:07.469229000,5.24322900390625,0.2225532023668289,-1.0510711876824497,-0.4743187629535794
2024-12-04 21:58:07.479304200,5.25330419921875,-0.9467419214189052,-0.9203259159192444,0.0505706419385969
2024-12-04 21:58:07.489378800,5.26337890625,-1.2174024443507194,-0.5066150586634874,0.0651972062494605
2024-12-04 21:58:07.499453200,5.273453125,-1.3180810791522264,-0.434522174616158,-0.1960116707913577
2024-12-04 21:58:07.509527800,5.28352783203125,-3.377134838896989,-2.192946097362041,-0.4303655663933605
2024-12-04 21:58:07.519603000,5.29360302734375,-4.626996952825785,-3.0392069523781537,-0.5483163115784525
2024-12-04 21:58:07.529676800,5.3036767578125,-3.686656715142728,-0.9943746102094648,-1.2948052713744342
2024-12-04 21:58:07.539752000,5.313751953125,-2.5869717186778782,-1.000750136590749,-0.92733484483324
2024-12-04 21:58:07.549827000,5.3238271484375,-1.2824503783226011,-1.7648761676251887,-0.3339657779548317
2024-12-04 21:58:07.559901000,5.33390087890625,-0.3611129472732544,-1.8120583361692728,0.018669117699936
2024-12-04 21:58:07.569976000,5.34397607421875,-1.9393530290871857,-1.778610532336682,0.2455893561698496
2024-12-04 21:58:07.580051000,5.354051025390625,-3.322605960851908,-0.6878184519015252,0.031712321809493
2024-12-04 21:58:07.590125000,5.364125,-2.989423223033547,1.5777663268223403,-0.7247936261426657
2024-12-04 21:58:07.600200000,5.374199951171875,-1.921586486250162,2.6441353291407226,-1.2534016862317918
2024-12-04 21:58:07.610275000,5.384275146484375,-0.4113800762206315,1.8522414396062488,-0.9428088197536766
2024-12-04 21:58:07.620349000,5.394348876953125,0.1904541827946901,1.1729947820212692,-0.1671361067777499
2024-12-04 21:58:07.630424000,5.404424072265625,0.4928676883399486,0.4404585789278149,0.1862518722666427
2024-12-04 21:58:07.640499200,5.414499267578125,1.6427724674791098,-0.732938865610212,-0.14538878720887
2024-12-04 21:58:07.650574000,5.424573974609375,2.125928324621916,-1.0112276183981448,-0.8866633733574301
2024-12-04 21:58:07.660648200,5.434648193359375,1.5011428136080502,-0.8299978486098348,-1.4368836919263004
2024-12-04 21:58:07.670723000,5.44472314453125,0.4571598306208849,-0.2661415111374109,-1.3188349662594496
2024-12-04 21:58:07.680798000,5.4547978515625,-0.5448416212052106,0.4611101756818592,-1.5586661972939968
2024-12-04 21:58:07.690872000,5.4648720703125,-0.8958622135311365,0.7126005725890397,-2.245446976710856
2024-12-04 21:58:07.700947000,5.474947021484375,-1.4653712430030106,-1.0778894903726874,-0.8282882682129741
2024-12-04 21:58:07.711022000,5.48502197265625,-1.601236341997981,-1.792948562029749,0.4873019439715891
2024-12-04 21:58:07.721096000,5.495095947265625,-1.060956914141774,-1.0050023872077465,0.7455175574805587
2024-12-04 21:58:07.731171000,5.505171142578125,-0.6181348209530114,-0.246850316016376,0.7321685388248413
2024-12-04 21:58:07.741246000,5.515245849609375,-0.5374345598191023,0.2325111172795295,0.5606697433255613
2024-12-04 21:58:07.751320000,5.525320068359375,-0.8449871818184852,0.4773525776915251,0.0957342372018843
2024-12-04 21:58:07.761395000,5.53539501953125,-1.2210539525955917,0.6162710729077459,-0.3627249855797738
2024-12-04 21:58:07.771470000,5.545469970703125,-1.098501339638233,1.1005566647328435,-0.5281119836678728
2024-12-04 21:58:07.781544000,5.5555439453125,-0.8173580011367797,1.3912877696603536,-0.5104066694987938
2024-12-04 21:58:07.791619000,5.565619140625,-1.1845131511837244,1.843166883399337,-1.0855637513276188
2024-12-04 21:58:07.801694000,5.57569384765625,-1.6136860737264156,3.3745863234579563,-2.063214094294608
2024-12-04 21:58:07.811769000,5.58576904296875,-2.446766544651985,2.8335721515864134,-2.2748422902822494
2024-12-04 21:58:07.821843000,5.595843017578125,-3.170399967908859,1.9301425715409213,-2.202140626686812
2024-12-04 21:58:07.831918000,5.60591796875,-3.130951754617691,1.5220016233719884,-2.0298561607025563
2024-12-04 21:58:07.841993200,5.6159931640625,-2.887525860092044,1.4257421201869844,-1.5865321093410252
2024-12-04 21:58:07.852067000,5.626067138671875,-2.567301388046145,1.5045510146163403,-1.0719362079914658
2024-12-04 21:58:07.862142200,5.63614208984375,-1.8370675436109305,1.6175516631133853,-0.6219416658900678
2024-12-04 21:58:07.872216800,5.646216796875,-0.8073153305500745,1.3524652870520948,0.1636436250194907
2024-12-04 21:58:07.882291200,5.656291259765625,-0.1049906527817249,0.8851395978562533,0.1416618391076102
2024-12-04 21:58:07.892365800,5.66636572265625,0.3327735724955797,0.3869184196591377,-0.0300672945488244
2024-12-04 21:58:07.902441000,5.67644091796875,0.7200590719014406,-0.0743986767716705,-0.0872935949843376
2024-12-04 21:58:07.912516000,5.68651611328125,0.3297241217970847,-0.6197780581153929,-0.0647280726340599
2024-12-04 21:58:07.922590000,5.69658984375,0.1391851833283901,-0.9291931129857898,0.0529801690320484
2024-12-04 21:58:07.932665000,5.7066650390625,0.3947188642770052,-0.8134796983987093,0.2009589362015016
2024-12-04 21:58:07.942740000,5.716739990234375,0.7830822220474482,0.0495003823585808,0.023809110936895
2024-12-04 21:58:07.952815000,5.726815185546875,0.4423988993406295,0.9214186795920132,-0.2401925020949915
2024-12-04 21:58:07.962889000,5.736888916015625,-0.4538952758669853,1.0433987533584237,-0.0002606510970275
2024-12-04 21:58:07.972964000,5.746964111328125,-1.0648130050480364,1.0479169614352286,0.2711336203362792
2024-12-04 21:58:07.983039200,5.757039306640625,-1.375747670701146,0.8719089448831975,0.4519923283224925
2024-12-04 21:58:07.993113000,5.767113037109375,-1.1288204900562762,0.8520994980417191,0.3035445188691839
2024-12-04 21:58:08.003188200,5.777188232421875,-0.3293202171713114,0.947997474437952,-0.0811989405042026
2024-12-04 21:58:08.013263000,5.78726318359375,0.3337631680548191,0.6908851459957659,-0.2570969847425818
2024-12-04 21:58:08.023338000,5.797337890625,0.887825037547946,0.228366272559762,-0.1549230150830932
2024-12-04 21:58:08.033412000,5.807412109375,1.5842787774562834,-0.2120006825618445,0.11601616039332
2024-12-04 21:58:08.043487000,5.817487060546875,2.127061712566018,-0.470568032117933,0.3219615980368107
2024-12-04 21:58:08.053561900,5.827561767578125,2.524424369350076,-0.3598175006352365,0.3526698573702946
2024-12-04 21:58:08.063637000,5.837636962890625,2.8369068489670752,-0.1269734981395304,0.3126040236374363
2024-12-04 21:58:08.073710800,5.8477109375,2.792985874176025,-0.0773950821086764,0.2579358101869002
2024-12-04 21:58:08.083786000,5.857785888671875,2.4233687179297205,-0.0345072497576475,0.2120079160202294
2024-12-04 21:58:08.093861000,5.867861083984375,2.112965382674336,-0.026878362314403,0.1692200369123369
2024-12-04 21:58:08.103935000,5.87793505859375,1.9788842444866888,-0.0297998027190566,0.1619629784561693
2024-12-04 21:58:08.114010000,5.888010009765625,1.7309025863528251,-0.0452561689175665,0.2481972005806863
2024-12-04 21:58:08.124085000,5.8980849609375,1.370769882288575,-0.1193793897487223,0.3354600351005792
2024-12-04 21:58:08.134160100,5.90816015625,1.125298161149025,-0.1251014206573367,0.327053879674524
2024-12-04 21:58:08.144234000,5.91823388671875,0.8734148194015026,0.0176873401209712,0.2936388090677559
2024-12-04 21:58:08.154309000,5.92830908203125,0.6199252115011215,0.1882701167538762,0.1015313061080872
2024-12-04 21:58:08.164384000,5.938384033203125,0.6553197654873132,0.3178878457918763,-0.1229800445891916
2024-12-04 21:58:08.174459000,5.948458984375,0.8065987067133188,0.3863888428270816,-0.267306682459265
2024-12-04 21:58:08.184533000,5.958532958984375,0.9053992726832628,0.2644482242882252,-0.1697029250584542
2024-12-04 21:58:08.194607900,5.96860791015625,1.0551029274165629,0.0047346273064613,-0.0702079470835626
2024-12-04 21:58:08.204683000,5.97868310546875,1.171518645054102,-0.0921118819862604,-0.0646998511865735
2024-12-04 21:58:08.214758000,5.9887578125,0.9560352349430322,-0.2425344986438751,-0.1499699775192886
2024-12-04 21:58:08.224832000,5.99883203125,0.6387661055713891,-0.2197445746868848,-0.3446267996355891
2024-12-04 21:58:08.234907000,6.008906982421875,0.835492792764306,-0.1084272031016647,-0.5921873097479343
2024-12-04 21:58:08.244982000,6.01898193359375,1.3114432485729457,-0.229059077129513,-0.6023153205305337
2024-12-04 21:58:08.255057200,6.02905712890625,1.203908172005415,-0.2825809700891375,-0.9229739462099968
2024-12-04 21:58:08.265132000,6.039132080078125,0.2915186020433902,0.054228726054728,-1.9234490652516485
2024-12-04 21:58:08.275206100,6.0492060546875,-0.3384218075156212,0.2679248143576085,-2.2483846375979484
2024-12-04 21:58:08.285281000,6.059281005859375,0.4222270489275455,-0.0554860326394438,-1.7339806786239147
2024-12-04 21:58:08.295356200,6.069356201171875,0.1574415555089712,-0.9379941129483282,-0.1120128065034747
2024-12-04 21:58:08.305431000,6.07943115234375,-0.5957125612646341,-1.2107244278915226,1.677772176928818
2024-12-04 21:58:08.315505200,6.089505126953125,1.1966501637011766,-1.0426365368142725,1.908277799604833
2024-12-04 21:58:08.325580000,6.099580078125,1.6004840623259544,-0.5663371214374899,0.8379569909207523
2024-12-04 21:58:08.335655000,6.109655029296875,0.325251360297203,-0.0711928664676845,-0.5561239165894687
2024-12-04 21:58:08.345730000,6.11972998046875,-0.8680021467030048,-0.0921948840945959,-1.4238492921777068
2024-12-04 21:58:08.355805000,6.129804931640625,-0.8887444904804229,-0.3326660204678773,-1.5885266441591084
2024-12-04 21:58:08.365879000,6.139879150390625,-0.3801221836477518,-0.5847659275755286,-1.342111943081021
2024-12-04 21:58:08.375954000,6.149953857421875,0.1085012912511825,-0.8241201887480915,-0.8400982407331467
2024-12-04 21:58:08.386030000,6.160030029296875,0.2869529015630483,-0.9584661153517664,-0.8499871820628643
2024-12-04 21:58:08.396105000,6.17010498046875,0.6286591375768185,-0.6024497605651616,-1.0859639296263457
2024-12-04 21:58:08.406179000,6.180178955078125,0.8890589632570743,-0.1496427183263003,-1.1049611833021045
2024-12-04 21:58:08.416254000,6.19025390625,0.7009376073241234,0.2127474092759191,-1.4894211038932204
2024-12-04 21:58:08.426329000,6.2003291015625,0.1510007088065147,0.7289999187260866,-1.9853779904201625
2024-12-04 21:58:08.436404000,6.210404052734375,-0.2328542316287755,0.0699750151105225,-1.8451561575204127
2024-12-04 21:58:08.446479000,6.22047900390625,-0.1453074656009674,-1.3658081682279706,-0.7058285942360758
2024-12-04 21:58:08.456553000,6.230552978515625,0.0792512313693761,-2.0901773584134875,0.090706399102509
2024-12-04 21:58:08.466628000,6.240628173828125,0.1045388173609972,-1.706666409110278,-0.5001622292622924
2024-12-04 21:58:08.476703000,6.250702880859375,-0.829524824270606,-0.6853238586068153,-1.5235840702578425
2024-12-04 21:58:08.486778000,6.260778076171875,-1.3113321894139052,0.2949555907547473,-1.795128098025918
2024-12-04 21:58:08.496853000,6.27085302734375,-0.8442208736211061,-0.1225821313127875,-1.041999115693569
2024-12-04 21:58:08.506927000,6.280927001953125,-0.4091401883393525,-0.3850532103091478,-0.6678834789842367
2024-12-04 21:58:08.517002000,6.291001953125,-0.927864786991477,-0.7818908203057944,-0.3107739221334457
2024-12-04 21:58:08.527076900,6.301076904296875,-0.5109790990918874,-1.725753240765631,0.3565864097595214
2024-12-04 21:58:08.537152000,6.311152099609375,1.1987789924234151,-2.5375965701341627,1.2982283776909112
2024-12-04 21:58:08.547227100,6.32122705078125,1.599016912382841,-1.1045907425545156,1.3028542839258908
2024-12-04 21:58:08.557302000,6.331302001953125,1.5640882223427297,-0.8157641560740768,1.0389695387393236
2024-12-04 21:58:08.567376100,6.341376220703125,-0.9913239904671908,-0.4697686984337866,0.9173100752294064
2024-12-04 21:58:08.577451000,6.351450927734375,-3.3268378993332384,0.1070054997354745,0.998128994306922
2024-12-04 21:58:08.587526100,6.361526123046875,-3.804012928500771,-0.1077129173524677,1.6015841325223446
2024-12-04 21:58:08.597601000,6.37160107421875,-3.19160349945724,-0.0187961781457066,2.0688129372149704
2024-12-04 21:58:08.607676000,6.381676025390625,-1.9954981101572515,0.4230775282770395,1.1253116051524876
2024-12-04 21:58:08.617750000,6.39175,-0.7172609656155109,0.5890437510251999,-0.056186874385178
2024-12-04 21:58:08.627825000,6.401824951171875,0.1616401762425899,0.9207277747184036,-0.2789355993241071
2024-12-04 21:58:08.637900000,6.411900146484375,-0.42054011875391,-0.038092707028985,0.4243120385080575
2024-12-04 21:58:08.647975000,6.421974853515625,-1.1641285348027943,-0.9041942808076738,0.2300605092570185
2024-12-04 21:58:08.658050000,6.432050048828125,-3.1705525281220672,-0.3759513277038931,-0.6804115366458893
2024-12-04 21:58:08.668125000,6.442125,-5.1787926309525965,0.3379828315764665,-0.752110160678625
2024-12-04 21:58:08.678199000,6.452198974609375,-4.2009728497028345,-0.8693412863522767,-0.4377256468325853
2024-12-04 21:58:08.688274200,6.462274169921875,-0.7319996850639581,-1.302855745230615,0.5371376226991414
2024-12-04 21:58:08.698349000,6.47234912109375,-0.3478080600202083,-0.3751923260301351,1.7315251021653413
2024-12-04 21:58:08.708424200,6.482424072265625,-0.0847884072303771,-0.8124456791758536,2.029682119309902
2024-12-04 21:58:08.718499000,6.4924990234375,-1.641902698907256,-0.1274701956152915,1.0166472322940825
2024-12-04 21:58:08.728574000,6.502573974609375,-2.8283856888592243,0.6964131156370044,0.271281869700551
2024-12-04 21:58:08.738648000,6.51264794921875,-2.33355166888237,-0.071293550363183,0.4056774806648492
2024-12-04 21:58:08.748723000,6.522722900390625,-1.2283914558768272,-0.2045268395498395,0.5247387443751096
2024-12-04 21:58:08.758798000,6.532798095703125,-0.6781453452795744,0.2411664251610636,0.5827993036776781
2024-12-04 21:58:08.768873000,6.542873046875,-0.9443260924488306,0.0469970212355256,0.9401230878010391
2024-12-04 21:58:08.778948000,6.552947998046875,-1.169576863336563,-0.121833358772099,0.6864625072479248
2024-12-04 21:58:08.789023000,6.56302294921875,-2.037721633380652,0.2625771697193384,0.0023141221612691
2024-12-04 21:58:08.799098000,6.57309814453125,-2.679375277087092,0.8522712013468146,-0.6557651711672544
2024-12-04 21:58:08.809172000,6.583171875,-2.376296001109481,1.9465297888487576,-0.8541551153972744
2024-12-04 21:58:08.819247000,6.5932470703125,-1.2571826660752297,2.110312530077994,-0.7259414079383015
2024-12-04 21:58:08.829322000,6.603322021484375,-1.084001105120778,1.624149600073695,-0.0254164730682969
2024-12-04 21:58:08.839396900,6.61339697265625,0.8151619523972272,1.2718605952471491,1.3632611140936612
2024-12-04 21:58:08.849472000,6.623471923828125,1.5089385820508003,-0.2665948809280991,2.0811486871749163
2024-12-04 21:58:08.859547100,6.633547119140625,1.9479636210441589,-1.1668214271485804,0.7086153023451566
2024-12-04 21:58:08.869622000,6.6436220703125,1.2662848409414291,-0.3328293943360447,-0.9524281503617764
2024-12-04 21:58:08.879696100,6.653696044921875,-0.4226777153044939,0.1644365289628505,-2.393672667846084
2024-12-04 21:58:08.889771000,6.66377099609375,-0.6296896496683358,0.5156716408222913,-2.644016963458061
2024-12-04 21:58:08.899846100,6.67384619140625,0.5518430243998765,0.6148676358506083,-1.6382196264803408
2024-12-04 21:58:08.909921000,6.683921142578125,1.9143138648986813,-0.117724754409492,-0.2091618058741092
2024-12-04 21:58:08.919996000,6.693995849609375,3.0073809045284983,-0.3225102448955178,0.6388824254274368
2024-12-04 21:58:08.930071000,6.704071044921875,3.3542677580505607,0.0494295090794563,0.6321607159569859
2024-12-04 21:58:08.940146000,6.71414599609375,2.3304507802575825,0.511047195892036,0.2421837855100631
2024-12-04 21:58:08.950221000,6.724220947265625,0.1900537853002548,0.4374135121434926,-0.3307607713684439
2024-12-04 21:58:08.960295000,6.734294921875,-0.9419967727184296,0.6482479274049401,-1.1796262559249997
2024-12-04 21:58:08.970370000,6.7443701171875,-1.6883961545348167,1.0401265998199585,-1.888059771962464
2024-12-04 21:58:08.980445000,6.75444482421875,-0.8797785092145204,1.055964512681961,-2.0445371586143968
2024-12-04 21:58:08.990520000,6.76452001953125,0.7671323732435703,1.3866364367231725,-2.2789231298550963
2024-12-04 21:58:09.000595200,6.77459521484375,1.7487457015573975,2.2812179627940057,-2.5387761353075504
2024-12-04 21:58:09.010669800,6.784669921875,2.1742302909761664,3.000535276417434,-2.3837080309316514
2024-12-04 21:58:09.020745000,6.794744873046875,3.4936885037004948,2.254784421637654,-1.824692630684376
2024-12-04 21:58:09.030820000,6.804820068359375,1.667984650146961,-0.643602439686656,-0.151332132717967
2024-12-04 21:58:09.040894000,6.81489404296875,0.8796206883043051,-2.022949011662602,1.000178328052163
2024-12-04 21:58:09.050969000,6.824968994140625,3.0971962000101803,-1.360784494847059,0.2868050175249576
2024-12-04 21:58:09.061044000,6.8350439453125,2.6094775649964808,-0.2308309091076254,-0.956897112469375
2024-12-04 21:58:09.071119000,6.845119140625,1.5346230584055185,0.4007327177390456,-1.5551652034357188
2024-12-04 21:58:09.081194000,6.855194091796875,1.7695505891770122,0.7339718619197607,-1.3764195786133409
2024-12-04 21:58:09.091269000,6.86526904296875,2.6607985869109627,1.1094593715041876,-1.0318038848936557
2024-12-04 21:58:09.101344000,6.875343994140625,2.911508793225884,1.261103638911247,-0.6523357812404632
2024-12-04 21:58:09.111419000,6.8854189453125,1.7928654137909412,1.1168412984490397,0.1975467714041471
2024-12-04 21:58:09.121494000,6.895493896484375,0.6672884357005358,0.7143278347730636,0.7511933380946516
2024-12-04 21:58:09.131569000,6.90556884765625,-0.0530535447955131,0.4957435360372066,0.6359729677215218
2024-12-04 21:58:09.141643000,6.91564306640625,-0.6753361330777407,0.5726546340212225,-0.2275546639159321
2024-12-04 21:58:09.151718100,6.92571826171875,-0.5530372026205063,0.717641197104752,-0.9495654544070362
2024-12-04 21:58:09.161793000,6.93579296875,-0.383551573574543,0.443181281889975,-0.605142068389058
2024-12-04 21:58:09.171868200,6.9458681640625,1.0700123272567987,0.3893652282893657,0.2046101339191198
2024-12-04 21:58:09.181943000,6.955943115234375,0.7062064876377582,-0.7981178786158561,0.9759642165109514
2024-12-04 21:58:09.192018000,6.966017822265625,1.2530173630893229,-1.4742428239837289,0.6028492812767624
2024-12-04 21:58:09.202093000,6.976093017578125,2.266880517622828,-0.7390110251307487,-0.183510939528048
2024-12-04 21:58:09.212168000,6.98616796875,1.787690641501546,-0.1461111831992864,-0.7050219540283084
2024-12-04 21:58:09.222243000,6.9962431640625,1.5875620369106531,-0.2944780363708734,-0.7525926834985613
2024-12-04 21:58:09.232318000,7.00631787109375,1.99600372159183,-0.4512523601427674,-0.6627049073025584
2024-12-04 21:58:09.242393000,7.01639306640625,1.9717612607389687,-0.5662991275146603,-0.5461453972801565
2024-12-04 21:58:09.252467000,7.026467041015625,1.6082529427617789,-0.7390371824853121,-0.3579591594174504
2024-12-04 21:58:09.262542000,7.0365419921875,0.8798544970601797,-0.6435822736814618,-0.247006967882812
2024-12-04 21:58:09.272617200,7.0466171875,-0.049224926418066,-0.2972850566156208,-0.4599284185513854
2024-12-04 21:58:09.282691800,7.05669189453125,-0.7042074227750301,-0.932116891478002,-0.056060033135116
2024-12-04 21:58:09.292767000,7.06676708984375,-0.6904173823535442,-1.168211420202255,-0.0030272388666868
2024-12-04 21:58:09.302842000,7.076842041015625,-0.8776496804922819,-1.2851855023749172,-0.1901788729846477
2024-12-04 21:58:09.312917000,7.0869169921875,-0.9857868146061896,-1.3163001870848237,-0.3499015251681208
2024-12-04 21:58:09.322992000,7.0969921875,-1.162814529594779,-1.255054860266298,-0.3566249882042407
2024-12-04 21:58:09.333067000,7.10706689453125,-1.1126239730149508,-1.1158695308074351,-0.2857856113493442
2024-12-04 21:58:09.343142100,7.11714208984375,-1.021518053200841,-1.008849856416136,-0.0683984134435653
2024-12-04 21:58:09.353217000,7.127217041015625,-0.7552057886064052,-1.0469767579756677,0.1156271976083517
2024-12-04 21:58:09.363292000,7.1372919921875,-0.1926595838844776,-1.0329891491554677,0.2613233702659607
2024-12-04 21:58:09.373367000,7.147366943359375,0.4945207162439823,-1.1334399665504693,0.4265159782931208
2024-12-04 21:58:09.383441200,7.157441162109375,1.0438584798246622,-1.3798273412302136,0.6671773765414953
2024-12-04 21:58:09.393515000,7.167514892578125,1.395082485768199,-1.7555447140477596,1.0116447478316724
2024-12-04 21:58:09.403590100,7.177590087890625,1.3713719398349522,-2.0421352120392022,1.341577105551958
2024-12-04 21:58:09.413665300,7.187665283203125,0.8604729202419519,-2.264160883400589,1.609133671119064
2024-12-04 21:58:09.423740200,7.197740234375,0.0865560014247894,-2.204037692479789,1.584671576166153
2024-12-04 21:58:09.433815300,7.207815185546875,-0.5816314289420843,-1.8164210614234209,1.15862073116675
2024-12-04 21:58:09.443890200,7.21789013671875,-0.9277870455801488,-1.3906877579405903,0.6243766379520297
2024-12-04 21:58:09.453965300,7.22796533203125,-1.0403758984059095,-1.058007855077833,0.1681594950087368
2024-12-04 21:58:09.464040200,7.238040283203125,-0.9508505257815122,-0.8258718547210097,0.1443061796039342
2024-12-04 21:58:09.474115000,7.248114990234375,-0.7191214987903833,-0.215003517639637,-0.5909041380695998
2024-12-04 21:58:09.484190200,7.258190185546875,-0.6911439430624247,-0.1740348167829215,-0.1767057895578443
2024-12-04 21:58:09.494265000,7.26826513671875,-0.1407972947001457,-0.7144722116798162,0.5999570669665932
2024-12-04 21:58:09.504340200,7.27834033203125,0.2066091987818479,-1.047012267680466,1.444894126033038
2024-12-04 21:58:09.514415400,7.288415283203125,-0.0048369186371564,-1.3546683500543235,2.252131569041312
2024-12-04 21:58:09.524490200,7.298490234375,-0.3627653906553983,-1.3792171003773808,2.480510116560757
2024-12-04 21:58:09.534565000,7.308565185546875,-1.2865642433822155,-0.5418291415162384,1.5703168875992295
2024-12-04 21:58:09.544640300,7.31864013671875,-1.989506176266074,0.2984644756585359,0.7239710577134043
2024-12-04 21:58:09.554715100,7.328715087890625,-2.276367307892442,0.3251531606197357,0.6467595154780894
2024-12-04 21:58:09.564790300,7.338790283203125,-2.781234646105766,0.1937909260019659,0.7280177758209407
2024-12-04 21:58:09.574864100,7.348864013671875,-3.433897175082564,0.3311287278980016,0.6092639706246554
2024-12-04 21:58:09.584939300,7.358939208984375,-3.954063204714656,0.5929030568018555,0.309542334511876
2024-12-04 21:58:09.595014100,7.36901416015625,-3.919451910060644,0.7871971100203693,0.1914070996053516
2024-12-04 21:58:09.605089300,7.37908935546875,-3.519472933298349,0.9243155700773,0.0547128197772428
2024-12-04 21:58:09.615164200,7.3891640625,-3.531384904888272,1.0852150109551846,-0.0510875784847885
2024-12-04 21:58:09.625239000,7.399239013671875,-3.598959726989269,1.2023865153960882,-0.1627179250093177
2024-12-04 21:58:09.635314200,7.409314208984375,-3.462880108460784,1.189524111213535,-0.1664256204208359
2024-12-04 21:58:09.645389000,7.41938916015625,-3.069017568752169,1.2607726533912125,-0.1965107428872957
2024-12-04 21:58:09.655464200,7.429464111328125,-2.5413188055276867,1.2011958443067967,-0.3259818299962208
2024-12-04 21:58:09.665539300,7.439539306640625,-1.967370916825533,0.9402603043146432,-0.3490154630485922
2024-12-04 21:58:09.675614200,7.4496142578125,-1.5205366653859616,0.6198090377755463,-0.3159001060407608
2024-12-04 21:58:09.685690000,7.459690185546875,-1.4028151258468626,0.3075698653951287,-0.4134394564358517
2024-12-04 21:58:09.695765200,7.46976513671875,-1.6442086377620695,0.0766946787543594,-0.7535571446165442
2024-12-04 21:58:09.705840000,7.479840087890625,-1.918596656784415,0.0151341485068202,-1.1537466953895985
2024-12-04 21:58:09.715915300,7.489915283203125,-1.7277385693639515,0.1393479726746678,-1.412068984143436
2024-12-04 21:58:09.725990400,7.499990478515625,-1.312462654748559,0.3351837023772299,-1.5686764269158244
2024-12-04 21:58:09.736065000,7.51006494140625,-0.8566676827400922,0.4901283265039324,-1.5425028518699109
2024-12-04 21:58:09.746140200,7.52014013671875,-0.4208773878842592,0.5433668724775313,-1.2871417510092258
2024-12-04 21:58:09.756215000,7.530215087890625,-0.2996031242996454,0.5071978269875049,-0.9869235635511576
2024-12-04 21:58:09.766290200,7.540290283203125,-0.2724959216654301,0.4554643518146127,-0.8737856985405087
2024-12-04 21:58:09.776364000,7.550364013671875,-0.3947948521226644,0.4540866337206214,-0.8301989972051232
2024-12-04 21:58:09.786439200,7.560439208984375,-0.401298827189207,1.209191665366292,-0.7717678510244935
2024-12-04 21:58:09.796514300,7.570514404296875,-0.2108487360477447,0.6561647649440914,-0.4987344980141148
2024-12-04 21:58:09.806589200,7.580589111328125,-0.321513927334547,-0.7236376610405743,-0.2088076952068135
2024-12-04 21:58:09.816664300,7.590664306640625,-0.3149380560755729,-0.7138311372973024,-0.4121016684934496
2024-12-04 21:58:09.826739200,7.6007392578125,-0.2401817980378866,0.0186884069222956,-0.8627949334487318
2024-12-04 21:58:09.836814000,7.61081396484375,0.1231932489484548,0.142645333719626,-1.1298640077598392
2024-12-04 21:58:09.846889200,7.62088916015625,0.6093167237251996,-0.0499300059475004,-1.0164037789270282
2024-12-04 21:58:09.856964000,7.630964111328125,1.0674088667601347,-0.1439291629850864,-0.6337145212702453
2024-12-04 21:58:09.867039200,7.641039306640625,1.287294311222434,-0.1600024920381605,-0.3536585396140813
2024-12-04 21:58:09.877114400,7.6511142578125,1.396408181414008,-0.1299883159160614,-0.165495828757435
2024-12-04 21:58:09.887189200,7.661189208984375,1.483446413397789,-0.0788049489066004,-0.0008415653906762
2024-12-04 21:58:09.897264000,7.67126416015625,1.56045074262321,-0.0772346308499574,0.1978298991944641
2024-12-04 21:58:09.907339000,7.681339111328125,1.4545634332627058,-0.0806625594720244,0.2963023291885853
2024-12-04 21:58:09.917414100,7.6914140625,1.0916817227512596,-0.0658731327496469,0.2748684960156679
2024-12-04 21:58:09.927489300,7.7014892578125,0.4675929618299007,0.1815427081950008,0.1509874839987605
2024-12-04 21:58:09.937564200,7.711564208984375,0.077281977123022,0.3911854294538497,-0.0470557656854391
2024-12-04 21:58:09.947639300,7.721639404296875,0.3843979612708091,0.5008429050028324,-0.1273429890390485
2024-12-04 21:58:09.957714200,7.731714111328125,1.017487190249562,0.5401248218163848,-0.2277921259336173
2024-12-04 21:58:09.967789000,7.7417890625,1.7666349939912556,0.4414318078741431,-0.2309726556658744
2024-12-04 21:58:09.977864200,7.7518642578125,2.387857844087481,0.443487279099226,0.0440463547363877
2024-12-04 21:58:09.987939000,7.76193896484375,2.8956021990418432,0.4264711162380873,0.6339699573360383
2024-12-04 21:58:09.998014200,7.77201416015625,2.7398697855383154,0.1582214538402855,1.220004005151242
2024-12-04 21:58:10.008089300,7.78208935546875,2.247018463811278,-0.3069644468478858,1.465725171007216
2024-12-04 21:58:10.018164200,7.792164306640625,2.2436089476287364,-0.588058831641078,1.3833967241495846
2024-12-04 21:58:10.028239400,7.8022392578125,2.0607237387835977,-0.5715884660944343,1.1375073621198537
2024-12-04 21:58:10.038314000,7.81231396484375,2.000029323846101,-0.3166226481616497,0.9431796988926828
2024-12-04 21:58:10.048389000,7.82238916015625,2.382621696999669,-0.0913394363090395,0.9812276899971067
2024-12-04 21:58:10.058464300,7.83246435546875,2.5373025556236506,-0.0503710277132689,1.2050580726929008
2024-12-04 21:58:10.068539100,7.8425390625,2.076635593664646,-0.4657838665813207,1.0374310771256685
2024-12-04 21:58:10.078614300,7.8526142578125,1.7020856571912764,-0.5150893108896911,0.5500580406792461
2024-12-04 21:58:10.088689200,7.862689208984375,1.2414818235963585,-0.1689323790773749,0.1950803812906145
2024-12-04 21:58:10.098764300,7.872764404296875,0.5546107355475426,-0.0773987353704869,-0.2675073195978999
2024-12-04 21:58:10.108839200,7.882839111328125,0.1813929244607686,0.0074582070514559,-0.629617607345432
2024-12-04 21:58:10.118914000,7.8929140625,-0.1507739143133163,0.2119515827231109,-0.829825999174267
2024-12-04 21:58:10.128989200,7.9029892578125,-0.4107815258055925,0.4201441051736473,-0.9964285470645874
2024-12-04 21:58:10.139064300,7.913064208984375,-0.5159720850735903,0.723480570782721,-1.5674118138074873
2024-12-04 21:58:10.149139200,7.92313916015625,-0.4488040902078151,0.4456938492327928,-1.5236206028759478
2024-12-04 21:58:10.159214300,7.93321435546875,-0.2463677931964397,0.210698075530678,-1.5126511728331449
2024-12-04 21:58:10.169289200,7.943289306640625,0.1188233633011579,0.058263534528762,-1.6486593335606157
2024-12-04 21:58:10.179364000,7.953364013671875,0.2548281630277633,0.087992756229639,-1.6215487699255346
2024-12-04 21:58:10.189439200,7.963439208984375,0.4748047929048538,0.2984871258817613,-1.553098918555677
2024-12-04 21:58:10.199514000,7.97351416015625,1.0582762967556714,0.2308674417257308,-1.5635636139467357
2024-12-04 21:58:10.209589200,7.98358935546875,1.5955968748062848,0.3720021516866982,-2.109289324510097
2024-12-04 21:58:10.219664100,7.9936640625,1.7260960628539324,-0.433074898417294,-0.2032809311419725
2024-12-04 21:58:10.229739300,8.0037392578125,1.5866741481602191,-2.4239197759412225,3.702025841449201
2024-12-04 21:58:10.239814400,8.013814453125,2.337680731511116,-3.098008100914955,4.761641570115089
2024-12-04 21:58:10.249889000,8.023888916015625,3.1120290274828672,-0.5916131631217897,1.0529352279886603
2024-12-04 21:58:10.259964200,8.033964111328125,1.4341501753091812,0.197753984414041,-0.8652832431331277
2024-12-04 21:58:10.270039000,8.0440390625,0.371636094853282,-0.6397843427032232,-1.2165262460380792
2024-12-04 21:58:10.280114200,8.0541142578125,0.4260322864294051,-0.5574550190627574,-1.3220780398339032
2024-12-04 21:58:10.290189300,8.064189208984375,0.3945551981478929,-0.250759306153655,-0.7668629086524248
2024-12-04 21:58:10.300265200,8.07426513671875,0.2940314616471529,-0.0135321201376616,-0.1469267373658716
2024-12-04 21:58:10.310340000,8.084340087890626,0.3631616964966058,-0.0230525204159319,0.1081947095200419
2024-12-04 21:58:10.320415200,8.094415283203125,0.5068950446486473,-0.1428581727527081,0.0815869808405637
2024-12-04 21:58:10.330490000,8.104489990234375,0.5289215830177069,-0.2148994727432727,-0.1488984758302569
2024-12-04 21:58:10.340565200,8.114565185546875,0.3991963019520044,-0.3546810145296156,-0.6170888190314173
2024-12-04 21:58:10.350640400,8.124640380859375,0.1315448977082967,-0.5606207896173,-0.965698258562386
2024-12-04 21:58:10.360715300,8.13471533203125,-0.1246259121000766,-0.6404673565313219,-1.0420128519579768
2024-12-04 21:58:10.370790100,8.1447900390625,-0.2296370231479406,-0.5451806439012289,-1.0404774590842425
2024-12-04 21:58:10.380866000,8.154865966796875,-0.315762231940031,-0.4543855436019599,-0.9157153533838688
2024-12-04 21:58:10.390941200,8.164941162109375,-0.1315484048396349,-0.4392946497149765,-0.8590269592173397
2024-12-04 21:58:10.401016000,8.17501611328125,-0.3837538181483745,-0.5398761077523231,-0.854710849583894
2024-12-04 21:58:10.411091200,8.18509130859375,-0.7691483892410993,-0.5169748323753476,-0.8808245111361146
2024-12-04 21:58:10.421166000,8.195166015625,-0.7570575539529323,-0.5773001217395067,-0.7704270308747887
2024-12-04 21:58:10.431241000,8.205240966796875,-0.9093179074317216,-0.6000893150441349,-0.5156193261131644
2024-12-04 21:58:10.441316000,8.215316162109374,-1.182770691430569,-0.5124376273371279,-0.3548395660921931
2024-12-04 21:58:10.451391000,8.225390869140625,-1.569525444960594,-0.4466859290100634,-0.5417233430542051
2024-12-04 21:58:10.461466000,8.235466064453124,-2.21525437528193,-0.4031681281924247,-0.8203869935691356
2024-12-04 21:58:10.471541200,8.245541259765625,-2.4774650497764346,-0.3260955560363829,-0.8571006673298776
2024-12-04 21:58:10.481616100,8.2556162109375,-2.440358431175351,-0.2974918312340974,-0.7237856912091374
2024-12-04 21:58:10.491691000,8.26569091796875,-2.0689993996977805,-0.3741381408020853,-0.5104423618666828
2024-12-04 21:58:10.501766000,8.275765869140624,-1.5451356845915316,-0.4647228132210672,-0.4435444161139428
2024-12-04 21:58:10.511841000,8.285841064453125,-1.439090554320812,-0.5015009305201471,-0.2917779836319387
2024-12-04 21:58:10.521916200,8.295916259765624,-1.653894749996066,-0.4169115529932081,-0.2674950446382165
2024-12-04 21:58:10.531991000,8.305990966796875,-2.131975788092613,-0.1878536449074745,-0.5046493115484714
2024-12-04 21:58:10.542066200,8.316066162109376,-2.7411609943926334,0.0652130614057183,-0.793963827676326
2024-12-04 21:58:10.552141000,8.32614111328125,-3.0287334891587494,0.3143912358477711,-1.0267809421651064
2024-12-04 21:58:10.562216000,8.3362158203125,-3.2159178565025326,0.6034948857039213,-1.266631754682958
2024-12-04 21:58:10.572292000,8.3462919921875,-3.230540840616822,0.7263553955666721,-1.4874851673945784
2024-12-04 21:58:10.582367200,8.3563671875,-2.8564585216552016,0.7182210428193211,-1.4353202420018611
2024-12-04 21:58:10.592442000,8.366442138671875,-2.397238251373172,0.7674163047514856,-1.316030576363206
2024-12-04 21:58:10.602517200,8.376517333984374,-1.8983102400809528,0.7233055064767598,-0.937221521140635
2024-12-04 21:58:10.612591900,8.386591796875,-1.174938682630658,0.6847505887635051,-0.2112419731490314
2024-12-04 21:58:10.622667000,8.3966669921875,-0.5079945303231478,0.7237545654185116,0.4091765748269855
2024-12-04 21:58:10.632742100,8.4067421875,-0.0635726007223129,0.7286949444301426,0.8991486878558993
2024-12-04 21:58:10.642817000,8.416817138671876,0.0745960990399122,0.6712785282500088,1.083324521033466
2024-12-04 21:58:10.652892200,8.42689208984375,-0.0794943924754858,0.5446614423327147,0.9289188260890544
2024-12-04 21:58:10.662967000,8.436967041015626,-0.4001601785480976,0.5088532660443336,0.7231918169692159
2024-12-04 21:58:10.673042200,8.447042236328125,-0.4541881213337183,0.5787058968842029,0.5372096650220454
2024-12-04 21:58:10.683117000,8.457116943359376,-0.4184486994326114,0.5944982170388102,0.4934123166106641
2024-12-04 21:58:10.693192000,8.46719189453125,-0.1954419080793857,0.5792256829746067,0.4323123896121978
2024-12-04 21:58:10.703267000,8.47726708984375,0.1518687238126993,0.5502294517233968,0.1496622998096048
2024-12-04 21:58:10.713342000,8.487342041015625,0.3639619069635867,0.4164920124068856,-0.1683010954365134
2024-12-04 21:58:10.723417000,8.4974169921875,0.6037935763895511,0.1943989748977124,-0.3666251348234713
2024-12-04 21:58:10.733492200,8.5074921875,0.6738771664410829,-0.0056245618835091,-0.4910232295170426
2024-12-04 21:58:10.743567000,8.517567138671875,0.6836509569585323,-0.1304354020964354,-0.5503736824996769
2024-12-04 21:58:10.753643000,8.52764306640625,0.6351555138587951,-0.2244889927349984,-0.5964816459409892
2024-12-04 21:58:10.763718100,8.53771826171875,0.5274129320204257,-0.2839857223205268,-0.6999186395399272
2024-12-04 21:58:10.773793000,8.54779296875,0.6404302393913268,-0.3865050165526568,-0.6893139511562884
2024-12-04 21:58:10.783868200,8.5578681640625,1.0010282228797671,-0.4035355002000927,-0.5779784593924879
2024-12-04 21:58:10.793943000,8.567943115234375,1.232203707641363,-0.3907420696005225,-0.3859431448861956
2024-12-04 21:58:10.804018000,8.578017822265625,1.5340630864351987,-0.4193049509357661,-0.2096419906064867
2024-12-04 21:58:10.814093000,8.588093017578124,1.6911878310799595,-0.3900075447808951,-0.1400425308100879
2024-12-04 21:58:10.824168000,8.59816796875,1.6552444110393525,-0.3459508147809654,-0.0474384813927113
2024-12-04 21:58:10.834243000,8.6082431640625,1.7933143266022205,-0.3270474499337375,-0.0782652890719473
2024-12-04 21:58:10.844318200,8.618318115234375,2.087969473105669,-0.3068821023266762,-0.0319014511734247
2024-12-04 21:58:10.854393000,8.62839306640625,2.207982338452339,-0.3175395438108593,0.0330967253725975
2024-12-04 21:58:10.864468200,8.63846826171875,2.1379577851116656,-0.3359691536664962,-0.0039127895295619
2024-12-04 21:58:10.874542800,8.64854296875,2.2128782938003537,-0.1530246158495545,0.0648084261275827
2024-12-04 21:58:10.884618000,8.658617919921875,2.058301480072737,-0.0033760523043572,0.1665548362910747
2024-12-04 21:58:10.894693000,8.668693115234374,2.2411843508303164,0.4051883089084178,-0.7898674982734024
2024-12-04 21:58:10.904769300,8.678769287109375,1.3358674957334995,0.5218029101189225,0.042254356753081
2024-12-04 21:58:10.914844200,8.68884423828125,1.9019009580492967,-0.1108925703018903,1.1124030237406493
2024-12-04 21:58:10.924919000,8.6989189453125,2.214258349981904,0.2306878473751246,0.4060018903136253
2024-12-04 21:58:10.934994000,8.708993896484374,1.89544316021204,0.3915767668589949,0.4415967891775071
2024-12-04 21:58:10.945069000,8.719069091796875,1.819578648671508,0.0667639441095292,0.6048948156297207
2024-12-04 21:58:10.955144200,8.729144287109374,1.6789543724507092,0.0211775203242897,0.5446829235121607
2024-12-04 21:58:10.965219000,8.739218994140625,1.2762106071501969,0.1928334791466593,0.390518709173426
2024-12-04 21:58:10.975294200,8.749294189453124,1.0738625729441642,0.2419780338048934,0.2848623590245843
2024-12-04 21:58:10.985369000,8.759369140625,0.884365252482891,0.1813084610477089,0.3350660673469305
2024-12-04 21:58:10.995444000,8.76944384765625,0.6200690038859844,0.2575701552122831,0.2301981641620397
2024-12-04 21:58:11.005519000,8.77951904296875,0.4793032733678817,0.3428532140918076,-0.0040422611281275
2024-12-04 21:58:11.015594000,8.789593994140626,0.2374813069075345,0.3497219308175146,-0.0300038008585572
2024-12-04 21:58:11.025670100,8.799670166015625,-0.0761193630844354,0.5408800240978598,0.0815882229495793
2024-12-04 21:58:11.035745000,8.8097451171875,-0.3558510812222957,0.5930548863627016,0.093878234071657
2024-12-04 21:58:11.045820000,8.81981982421875,-0.3762082250744104,0.1862856649383902,-0.1038804995827376
2024-12-04 21:58:11.055895000,8.82989501953125,-0.3039806087315082,0.1641302394926548,0.0463236520186066
2024-12-04 21:58:11.065970200,8.83997021484375,-0.7610416551530361,0.0144949738204479,0.5500156628422439
2024-12-04 21:58:11.076045000,8.850045166015626,-0.2727396672934293,0.3594960135959089,0.659644204557687
2024-12-04 21:58:11.086120200,8.8601201171875,-0.4769909047722816,0.5705988705351949,0.3480401152104139
2024-12-04 21:58:11.096195000,8.870195068359376,-0.8159738533020019,0.2110975962422788,0.1766733485929668
2024-12-04 21:58:11.106270000,8.88027001953125,-0.5090951850414276,0.5657205969743431,-0.1273670275017619
2024-12-04 21:58:11.116345000,8.890344970703126,0.5244704488277435,1.033722285735607,-0.5270429296642541
2024-12-04 21:58:11.126420000,8.900419921875,1.2834031490027904,0.8753687299482524,-0.0800819831050932
2024-12-04 21:58:11.136495000,8.9104951171875,1.1487030021339657,0.4739768176481127,0.6170211606226861
2024-12-04 21:58:11.146571300,8.9205712890625,2.157348129758238,0.8533356157079338,0.5372482434667647
2024-12-04 21:58:11.156646000,8.93064599609375,2.864503880944848,0.7559855408072471,0.0988883903838694
2024-12-04 21:58:11.166721000,8.940720947265625,3.0110084473758936,0.8947902003854513,0.2931967643886804
2024-12-04 21:58:11.176796000,8.9507958984375,3.617222528910637,1.3782302812971174,0.3227740103982389
2024-12-04 21:58:11.186871000,8.96087109375,3.5322301235407587,2.492885614009201,-0.0523024341672658
2024-12-04 21:58:11.196946200,8.9709462890625,2.455302317807078,2.9800866548895835,-0.0670718410149216
2024-12-04 21:58:11.207021000,8.98102099609375,2.0168460186123847,3.988682974936068,-0.0298532864719629
2024-12-04 21:58:11.217096200,8.99109619140625,1.788990033662319,4.624965739259124,0.2215133379250764
2024-12-04 21:58:11.227171000,9.001171142578125,2.0542080732792614,4.729652440658211,1.8129972244545816
2024-12-04 21:58:11.237246000,9.011245849609375,2.989414455205202,6.4669333298712965,1.9076088143020864
2024-12-04 21:58:11.247321000,9.021321044921876,5.918347845962643,9.544943183374404,-1.7851491403251885
2024-12-04 21:58:11.257397200,9.031397216796876,10.033699344742296,10.982415781104564,-6.111310796707868
2024-12-04 21:58:11.267472100,9.04147216796875,9.078634416136143,4.680394781014323,-0.5514852970033883
2024-12-04 21:58:11.277547000,9.051547119140626,7.884659024602175,3.3021506173223254,2.91524622618854
2024-12-04 21:58:11.287622000,9.061621826171876,6.938011211207509,4.834069092944264,2.101483034673333
2024-12-04 21:58:11.297697000,9.071697021484376,5.127248906198144,7.089404134202003,1.478619431632757
2024-12-04 21:58:11.307772200,9.081772216796876,2.656761878740787,8.524901632466912,1.3267144674628972
2024-12-04 21:58:11.317847000,9.091846923828124,0.2191571301877498,9.379123091098666,1.3584896619081497
2024-12-04 21:58:11.327922200,9.101922119140625,-3.8187610002994536,8.447384677544235,1.8352783221066
2024-12-04 21:58:11.337997000,9.1119970703125,-6.547820053488016,8.403466625362634,2.1640379827857017
2024-12-04 21:58:11.348072000,9.122072021484374,-6.529953557407856,8.583148654252291,2.880388263297081
2024-12-04 21:58:11.358147000,9.13214697265625,-5.274090157237649,8.192676341503859,2.677898190271854
2024-12-04 21:58:11.368223000,9.142222900390625,-4.128718637613952,7.745790067616104,1.5064140320092438
2024-12-04 21:58:11.378298000,9.152298095703124,-3.589852875947952,7.251082888889313,-0.1494721840649843
2024-12-04 21:58:11.388373000,9.162373046875,-4.049294680026174,6.15254297080636,-3.7040520865797992
2024-12-04 21:58:11.398447900,9.17244775390625,-5.886133675578236,4.9064019232273095,-8.196992451137303
2024-12-04 21:58:11.408522800,9.182522705078124,-7.798125235009193,3.4463922072574493,-11.379659195423123
2024-12-04 21:58:11.418598000,9.192597900390624,-8.392225100380182,1.5766232942670584,-13.089791380947828
2024-12-04 21:58:11.428672800,9.2026728515625,-6.590324147218466,-1.871634414601326,-13.86542620959878
2024-12-04 21:58:11.438748000,9.212747802734375,-7.6786559750199315,-4.782593172729015,-16.37141885020137
2024-12-04 21:58:11.448823000,9.222822998046874,-8.743937182101607,-6.32589579667449,-18.438460101568698
2024-12-04 21:58:11.458898000,9.23289794921875,-8.70881150818467,-6.568558890134096,-19.595833316892385
2024-12-04 21:58:11.468973800,9.242973876953124,-7.309768886613845,-6.901917569041252,-19.50951696944237
2024-12-04 21:58:11.479049000,9.253049072265624,-5.308696775716543,-7.837634823098778,-18.76658263338804
2024-12-04 21:58:11.489123800,9.263123779296874,-3.2200217846900223,-8.333379528179764,-17.30063797441125
2024-12-04 21:58:11.499199000,9.273198974609375,0.4517191008716821,-9.02288038021028,-15.84742186410427
2024-12-04 21:58:11.509274000,9.283274169921874,20.06811882045269,-8.932784514221549,-13.41664550026655
2024-12-04 21:58:11.519348700,9.2933486328125,28.239313982510566,-10.923033033287524,-7.206847441321611
2024-12-04 21:58:11.529424000,9.303423828125,10.71908399362564,-10.131426728522776,-4.174038081026077
2024-12-04 21:58:11.539498800,9.313498779296877,4.158649373236298,-8.634379075273872,-4.889266664031148
2024-12-04 21:58:11.549574000,9.323573974609374,5.643317437383532,-7.616592025294899,-5.9189709462970495
2024-12-04 21:58:11.559649000,9.33364892578125,6.324032925412059,-8.325380346119402,-4.79060346070528
2024-12-04 21:58:11.569724000,9.343723876953124,3.561715745744109,-7.608954077762365,-0.7169435702294111
2024-12-04 21:58:11.579799800,9.3537998046875,1.0967302383124828,-5.46189353326261,3.6729835790991774
2024-12-04 21:58:11.589875000,9.363875,-1.1127999141037463,-1.0754232463896274,2.973399139949679
2024-12-04 21:58:11.599949800,9.37394970703125,-4.361047676324844,0.5564625008940697,3.101439828929305
2024-12-04 21:58:11.610025000,9.38402490234375,-4.578167163205147,1.1693708193704486,2.6431337508827446
2024-12-04 21:58:11.620099800,9.394099853515623,-3.881136500191688,0.1337614047139882,2.8952152455508706
2024-12-04 21:58:11.630175000,9.404175048828124,-2.8079157322824,-0.8798460214927792,2.942100330844521
2024-12-04 21:58:11.640249900,9.414249755859377,-2.35131192810908,-1.4131398282453418,1.662763116106391
2024-12-04 21:58:11.650324700,9.42432470703125,-3.521987546467781,-1.484318520057201,1.3907137691646814
2024-12-04 21:58:11.660399900,9.43439990234375,-3.4427006592631337,-1.022407695516944,3.101586543923616
2024-12-04 21:58:11.670475000,9.44447509765625,-1.3556256507791578,0.1279725921794772,4.476732741600275
2024-12-04 21:58:11.680551000,9.454551025390623,0.1082347492694854,2.936406795378029,3.6758196793079376
2024-12-04 21:58:11.690625800,9.464625732421876,-1.430274064528197,2.512977092662453,6.114338035574555
2024-12-04 21:58:11.700701000,9.474700927734377,-3.2109929673209785,2.12561239054054,8.397164894869922
2024-12-04 21:58:11.710775800,9.48477587890625,-2.69142870297432,1.6829501640886066,9.113508745640516
2024-12-04 21:58:11.720851000,9.494850830078123,-2.987595423084497,2.498009240633249,8.75115076674223
2024-12-04 21:58:11.730925800,9.50492578125,-1.073145072324574,5.923424418574571,4.996765500241517
2024-12-04 21:58:11.741001000,9.5150009765625,4.1360675390720365,8.48670897219479,1.3921417561411855
2024-12-04 21:58:11.751076000,9.525076171875,5.607060129088163,8.742230962705612,-0.4995487735390663
2024-12-04 21:58:11.761150700,9.535150634765625,5.474213501131534,7.627583374908566,-1.0804998190015551
2024-12-04 21:58:11.771225900,9.545225830078126,4.683024837256967,6.656735770758986,-2.39483586640656
2024-12-04 21:58:11.781300700,9.55530078125,3.0415353953257203,6.975622856721282,-3.623392741978168
2024-12-04 21:58:11.791377000,9.565376953125,0.5144143342375755,6.65031187519133,-4.447053058129549
2024-12-04 21:58:11.801452000,9.5754521484375,-4.189322451658547,6.671085783150792,-3.5322283699750896
2024-12-04 21:58:11.811527000,9.58552685546875,-12.410511478680371,6.063520287007093,-3.501546231463552
2024-12-04 21:58:11.821601800,9.595601806640625,-12.362948932516574,0.9841343712240456,-6.06071049028337
2024-12-04 21:58:11.831677000,9.605677001953126,-8.973536795848608,-0.9751619602173566,-4.371193222764134
2024-12-04 21:58:11.841751800,9.615751708984376,-8.215310198116303,-1.884172409135103,-2.7611867143332955
2024-12-04 21:58:11.851827000,9.625826904296876,-8.083561302268505,-4.271859572830796,-0.5099906725764274
2024-12-04 21:58:11.861902000,9.635902099609376,-7.82868053227067,-4.748208088046312,1.992782421457768
2024-12-04 21:58:11.871977000,9.64597705078125,-6.718529671370983,-4.731878300014138,3.6836131096631286
2024-12-04 21:58:11.882051800,9.6560517578125,-5.879768816721439,-4.919092477974296,4.441382903538644
2024-12-04 21:58:11.892128000,9.6661279296875,-3.68920639962554,-4.837210898101329,3.880817935761809
2024-12-04 21:58:11.902203000,9.676202880859377,-0.4119372717119753,-4.585810371434689,2.2380983675137163
2024-12-04 21:58:11.912278000,9.686278076171876,2.267448088377714,-4.15208168528378,0.3252047446765005
2024-12-04 21:58:11.922353000,9.696352783203125,5.877023901927471,-3.169993140673637,-1.667913922998309
2024-12-04 21:58:11.932427800,9.706427734375,18.976463401186464,-1.2023714639574288,-3.959299351802468
2024-12-04 21:58:11.942503000,9.7165029296875,27.88613650441169,0.5273147323429584,-4.846241176775098
2024-12-04 21:58:11.952577800,9.726577880859375,12.278051804214716,-2.177738006836176,-2.13649472682178
2024-12-04 21:58:11.962653000,9.73665283203125,4.6540638234496114,-4.330019500854611,-1.0187491730093956
2024-12-04 21:58:11.972728000,9.74672802734375,0.477549707698822,-5.32800470277667,-0.8242137122504413
2024-12-04 21:58:11.982803000,9.756802978515625,-1.4450807346463204,-5.568008221638203,-0.5607908854871988
2024-12-04 21:58:11.992878000,9.766878173828124,-2.307010867959261,-5.27917958933115,-1.0278286976523696
2024-12-04 21:58:12.002952700,9.77695263671875,-3.2404993400514126,-4.793890811812878,-1.590981636095792
2024-12-04 21:58:12.013028900,9.78702880859375,-4.081371487766504,-4.635558444944024,-1.1834718254372476
2024-12-04 21:58:12.023104000,9.79710400390625,-4.614847080826759,-5.001784789708257,-0.9203886058919132
2024-12-04 21:58:12.033179000,9.807178955078124,-4.530556686246395,-5.570633309444784,-0.6558502191022038
2024-12-04 21:58:12.043254000,9.81725390625,-4.012442328447103,-5.503634825927019,-0.4039889430560171
2024-12-04 21:58:12.053329000,9.827328857421875,-3.591699965119361,-4.255527446711064,-0.4076007038123905
2024-12-04 21:58:12.063403800,9.83740380859375,-2.166840180724859,-1.831383068233728,-0.0706194504939019
2024-12-04 21:58:12.073479000,9.84747900390625,-0.9006278204977511,-0.4177653933435678,0.4987888950824737
2024-12-04 21:58:12.083553800,9.8575537109375,0.1172843536982312,0.4303098176181316,1.2864162132136523
2024-12-04 21:58:12.093629000,9.86762890625,0.1502548588752746,0.8363502863764762,0.7988824332475661
2024-12-04 21:58:12.103704000,9.8777041015625,-0.0506032381671015,0.9552993218839168,0.1211652502521872
2024-12-04 21:58:12.113779000,9.887779052734375,-0.3276899490883573,1.5053402652978896,-0.3869192964419722
2024-12-04 21:58:12.123854800,9.897854736328124,2.255157931125164,3.210640792882442,-0.4230528322272002
2024-12-04 21:58:12.133930000,9.907929931640624,10.529183353060484,7.43322458589077,-0.5723058205835521
2024-12-04 21:58:12.144004900,9.9180048828125,12.450166612720489,11.182946536755562,-1.1619123200580477
2024-12-04 21:58:12.154080000,9.928080078125,12.347035908591746,14.917503651714323,-1.436908534106612
2024-12-04 21:58:12.164155000,9.93815478515625,11.181876861697434,19.53922938613892,-2.1736624279603363
2024-12-04 21:58:12.174229800,9.948229736328123,7.440662042415141,21.80745488862992,-1.9103335630908609
2024-12-04 21:58:12.184305000,9.958304931640624,1.7327485064804553,20.255853222894668,0.702866164233908
2024-12-04 21:58:12.194379800,9.9683798828125,-1.9832909550130369,18.26363428053856,2.90462692475766
2024-12-04 21:58:12.204455000,9.978454833984374,-2.1907576474070547,15.30608678971529,3.9628529526308176
2024-12-04 21:58:12.214530000,9.988530029296877,-2.5908932760357857,11.15715743098259,2.401581979665905
2024-12-04 21:58:12.224605000,9.99860498046875,-4.76233130594492,6.102027420055866,0.0114084059819579
2024-12-04 21:58:12.234680000,10.00868017578125,-4.952302089136839,2.7710920222759245,-1.6323156631335616
2024-12-04 21:58:12.244756000,10.018755859375,-4.640271444940566,0.9460229594945908,-2.9204268436968324
2024-12-04 21:58:12.254830800,10.028830810546877,-3.1619808068707584,-0.4001742070734501,-4.445418150404096
2024-12-04 21:58:12.264906000,10.038906005859374,-1.981707485213876,-1.338600135567784,-5.884806226366758
2024-12-04 21:58:12.274980900,10.04898095703125,-1.8200342834845185,-1.8254197759151456,-6.75551821655035
2024-12-04 21:58:12.285056000,10.059055908203124,-2.434389293637872,-1.1275403871178626,-5.405936083719134
2024-12-04 21:58:12.295131000,10.069130859375,-3.997553971394896,0.3161339878618717,-3.4430814752742647
2024-12-04 21:58:12.305205800,10.079205810546876,-4.827262920060754,1.4122306044459343,-1.979099786933512
2024-12-04 21:58:12.315281000,10.089281005859377,-4.298396282100677,2.0514777715325354,-0.731970897360891
2024-12-04 21:58:12.325356000,10.09935595703125,-3.45289179840982,2.210671139144897,0.3019057021535933
2024-12-04 21:58:12.335431000,10.109430908203125,-3.3135040782466527,1.8364631479769944,1.1354004529684782
2024-12-04 21:58:12.345506000,10.119506103515626,-4.137710045582056,1.1397884587943554,1.695000667366385
2024-12-04 21:58:12.355581000,10.129580810546877,-5.256062917637824,0.2497077512741088,1.986326377186179
2024-12-04 21:58:12.365656800,10.13965673828125,-5.995237024375796,-0.6512462324380874,2.1483077680818736
2024-12-04 21:58:12.375732000,10.14973193359375,-6.278455415585637,-1.3983119692087174,2.1624160806722936
2024-12-04 21:58:12.385806800,10.159806884765626,-6.110201958683133,-2.114030966079235,2.181989672931284
2024-12-04 21:58:12.395881700,10.1698818359375,-5.843519691732525,-2.692947290843725,2.147719446799904
2024-12-04 21:58:12.405956900,10.179956787109376,-5.528085961094498,-3.185422764995694,2.0837473253659904
2024-12-04 21:58:12.416031500,10.190031494140625,-5.216020830106735,-3.6160447173029184,2.2074372717902064
2024-12-04 21:58:12.426106600,10.200106689453126,-4.978367673763633,-3.987783688008785,2.4414054560102523
2024-12-04 21:58:12.436181800,10.210181640625,-4.774914893186092,-4.346927381035686,2.8836002110809087
2024-12-04 21:58:12.446256600,10.220256591796876,-4.701227141162753,-4.80608160034418,3.453444171595573
2024-12-04 21:58:12.456331800,10.230331787109376,-4.764935935485362,-5.326521186220646,3.53774859470129
2024-12-04 21:58:12.466406700,10.24040673828125,-4.4524639772623775,-5.672805397674441,2.6403116791993377
2024-12-04 21:58:12.476481800,10.250481689453125,-4.265322280016541,-5.602521901136637,1.4184354504354295
2024-12-04 21:58:12.486557700,10.2605576171875,-4.430166220736504,-5.437077071914077,0.8273767063260078
2024-12-04 21:58:12.496632600,10.270632568359376,-3.351272083365917,-5.115550869619846,0.7468706525899469
2024-12-04 21:58:12.506707700,10.280707763671876,0.006672901892662,-5.055670109152794,1.9338121999643745
2024-12-04 21:58:12.516782800,10.290782958984376,4.145553160297871,-4.127728165271878,3.2827269549280405
2024-12-04 21:58:12.526857700,10.300857666015624,4.220070933404565,-2.040854086187481,2.334124792595208
2024-12-04 21:58:12.536932600,10.3109326171875,-2.434476387399435,-0.0782505298942327,-0.0285473184399306
2024-12-04 21:58:12.547007700,10.3210078125,-4.883302202668785,0.4076858978778123,-2.290378589849174
2024-12-04 21:58:12.557082600,10.33108251953125,-2.416467267978191,0.8167711411595344,-3.2591657543376087
2024-12-04 21:58:12.567157800,10.34115771484375,1.1182155094116926,2.21394855338037,-3.2951082975953816
2024-12-04 21:58:12.577232600,10.351232666015624,6.05908668847382,3.915010712742805,-1.406884274981916
2024-12-04 21:58:12.587307800,10.361307861328124,0.7758452565312385,5.935238190487027,0.9466513205260038
2024-12-04 21:58:12.597382700,10.371382568359374,-4.35133993678093,7.918297674831748,2.3396166680097576
2024-12-04 21:58:12.607458600,10.38145849609375,-1.5786840261891484,8.521357676249742,2.170218717247248
2024-12-04 21:58:12.617533700,10.39153369140625,0.2266968780428171,5.961497836381197,-0.2289633616700768
2024-12-04 21:58:12.627608800,10.40160888671875,-0.8263064467459916,3.512770220789313,-2.593118843130767
2024-12-04 21:58:12.637683700,10.41168359375,-1.3444658127307891,1.9446675021082165,-4.25898372464478
2024-12-04 21:58:12.647758800,10.4217587890625,-0.687471099768579,0.4893061964660882,-4.012444958795607
2024-12-04 21:58:12.657833500,10.43183349609375,-0.3632908758342266,-0.1214654022425413,-2.905769957312941
2024-12-04 21:58:12.667908600,10.44190869140625,-1.3150140927970408,-0.0920090061336755,-1.7637123845428226
2024-12-04 21:58:12.677983700,10.451983642578124,-1.8458368332609527,0.2359498595565557,-0.5387690232932567
2024-12-04 21:58:12.688058600,10.46205859375,-1.5084320938333868,0.7559732658475637,0.3505187802836298
2024-12-04 21:58:12.698133800,10.4721337890625,-1.1323282059162854,1.3154443009078505,0.9227911369889974
2024-12-04 21:58:12.708209000,10.482208984375,-1.087790560531616,1.775066137728095,1.2833213159382342
2024-12-04 21:58:12.718283800,10.49228369140625,-1.2522308888867495,2.080295285215973,1.5482082239046693
2024-12-04 21:58:12.728359700,10.502359619140623,-1.3033283311784267,2.2968097919404507,1.7969941841587422
2024-12-04 21:58:12.738434800,10.512434814453124,-1.254556847616285,2.5135727204680443,1.9453116452306507
2024-12-04 21:58:12.748509700,10.522509765625,-1.2733037797927855,2.6412165190845727,1.9874919138342144
2024-12-04 21:58:12.758584800,10.532584716796874,-1.3013621456719937,2.630256733652949,1.9848878688156604
2024-12-04 21:58:12.768659700,10.54265966796875,-1.361750271139294,2.61080326064229,1.9529606986790893
2024-12-04 21:58:12.778734600,10.552734619140624,-1.4611317057371138,2.52939514349997,1.9786662178218364
2024-12-04 21:58:12.788809700,10.562809814453123,-1.4242529045425354,2.164773895844817,2.010209649337828
2024-12-04 21:58:12.798884600,10.572884521484376,-1.3142600595593452,1.475210499972105,2.0304744387313725
2024-12-04 21:58:12.808959700,10.582959716796877,-1.305744744670391,0.705395755776763,1.9939239927083248
2024-12-04 21:58:12.819034600,10.59303466796875,-1.2908277460455897,-0.0242500596374273,1.9346178172588344
2024-12-04 21:58:12.829109800,10.60310986328125,-1.2577964140594005,-0.6933347311049699,1.8744009567052125
2024-12-04 21:58:12.839185700,10.613185546875,-1.0711562365949154,-1.0981336753696205,1.717692391645908
2024-12-04 21:58:12.849260800,10.6232607421875,-0.8391863865852356,-1.4134633611112832,1.4751678298741575
2024-12-04 21:58:12.859335700,10.633335693359374,-0.789007520443201,-1.775498683926463,1.1526192987948656
2024-12-04 21:58:12.869410800,10.643410888671877,-0.981022961205244,-2.0428817926228047,0.811147163797915
2024-12-04 21:58:12.879485700,10.653485595703126,-1.0885299807220696,-2.288192770242691,0.5256044212937355
2024-12-04 21:58:12.889560600,10.663560546875,-1.210742913396284,-2.4245476985812187,0.1971042883336544
2024-12-04 21:58:12.899635700,10.6736357421875,-1.5181564922511577,-2.63765911886394,-0.1438803554072976
2024-12-04 21:58:12.909710600,10.683710693359377,-1.591351492321491,-2.986072159039974,-0.3323363501220941
2024-12-04 21:58:12.919785700,10.69378564453125,-1.7105618091136217,-3.354266589006781,-0.4555205389812588
2024-12-04 21:58:12.929860600,10.703860595703125,-1.5370400564193725,-3.6418969514399766,-0.689269089101255
2024-12-04 21:58:12.939935700,10.713935791015626,-1.105291292039305,-3.787213769391178,-0.9377934758096932
2024-12-04 21:58:12.950011600,10.72401171875,-0.5344124355189502,-3.683924659830332,-1.4044292830452323
2024-12-04 21:58:12.960086500,10.73408642578125,-0.20115487889871,-3.506912142410874,-2.114706965644657
2024-12-04 21:58:12.970161700,10.74416162109375,0.0443975062616169,-2.7584622578054665,-3.0934535063505173
2024-12-04 21:58:12.980236800,10.75423681640625,0.7278171386823058,-1.333842711907625,-4.248270607450604
2024-12-04 21:58:12.990311700,10.764311767578125,2.0834283225446937,-0.0604968465387821,-4.983459443944692
2024-12-04 21:58:13.000386800,10.77438671875,4.14422921821773,0.7886468704372644,-5.227963781356811
2024-12-04 21:58:13.010461700,10.784461669921876,5.994014789104462,1.605559465894103,-5.1976200810194015
2024-12-04 21:58:13.020536600,10.79453662109375,6.947760451805591,2.1240841580599543,-4.955334004178643
2024-12-04 21:58:13.030611700,10.80461181640625,7.633408135539293,1.6867700146377085,-4.400701056799292
2024-12-04 21:58:13.040686600,10.8146865234375,7.595178065866231,0.6373205829381943,-4.179090688240528
2024-12-04 21:58:13.050761700,10.82476171875,5.679126417389512,0.0264928701281547,-4.2301869614884255
2024-12-04 21:58:13.060837600,10.834837646484376,2.69320038882196,-0.2015069072067737,-4.217494360914826
2024-12-04 21:58:13.070912500,10.84491259765625,0.2822382941313088,-0.3484019342601299,-4.002130485530198
2024-12-04 21:58:13.080987600,10.854987548828126,-1.3435321851424873,-0.4392103324323892,-3.3702938869610426
2024-12-04 21:58:13.091062800,10.865062744140625,-1.3666133471310138,-0.3642185120731592,-2.4594082918211817
2024-12-04 21:58:13.101137700,10.8751376953125,-1.0724798864141103,-0.0359095177710056,-1.58491035335809
2024-12-04 21:58:13.111212800,10.885212890625,-0.8257315694674849,0.0101829558402299,0.0305938757061958
2024-12-04 21:58:13.121287700,10.89528759765625,-1.2537272649243474,0.2813894222170114,1.757411823093891
2024-12-04 21:58:13.131362600,10.905362548828125,-1.5790622118517756,0.6596604250401258,3.093814740878343
2024-12-04 21:58:13.141437700,10.915437744140624,-1.3159608721278606,0.9501999529182912,3.976923563559353
2024-12-04 21:58:13.151512600,10.9255126953125,-1.0325655169159174,0.8759516444027423,4.381026634514331
2024-12-04 21:58:13.161587700,10.935587646484375,-0.432315896743536,0.387680636203289,3.9256130630388855
2024-12-04 21:58:13.171664000,10.945663818359376,0.4565671254247426,-0.4329600398659706,2.6593466345369814
2024-12-04 21:58:13.181738500,10.955738525390624,1.039229650980234,-0.8545850312471389,1.1729372796803712
2024-12-04 21:58:13.191813600,10.965813720703125,1.2966093981869518,-0.9168915575563908,-0.295586582134664
2024-12-04 21:58:13.201888800,10.975888671875,1.340498954926431,-0.8378934241652488,-1.441504045203328
2024-12-04 21:58:13.211963600,10.985963623046874,1.1639124078340828,-0.7889075672000646,-1.9262997785076497
2024-12-04 21:58:13.222038800,10.996038818359375,0.815947549816966,-0.902331117284298,-1.4999582799986004
2024-12-04 21:58:13.232113700,11.00611376953125,0.4031161057442426,-0.8503735510319471,-0.7415162859499455
2024-12-04 21:58:13.242188800,11.016188720703123,0.0213581375882029,-0.53587213280797,-0.2529886726409197
2024-12-04 21:58:13.252263700,11.026263671875,-0.1630211092069745,-0.0642611675083637,-0.1143383268415927
2024-12-04 21:58:13.262338600,11.036338623046875,-0.2453860886827111,0.4956535196661948,-0.1439879074349999
2024-12-04 21:58:13.272413700,11.04641357421875,-0.2368424244821071,1.1185749903738498,-0.2640852361947298
2024-12-04 21:58:13.282489900,11.05648974609375,-0.0460565255150198,1.710329753923416,-0.4775666588336229
2024-12-04 21:58:13.292564700,11.066564697265624,0.3778700208067894,2.1003724430829287,-0.7404927881211042
2024-12-04 21:58:13.302639600,11.0766396484375,0.7609788190498947,2.263289215132594,-1.0569377416282892
2024-12-04 21:58:13.312714500,11.086714599609374,0.9559607084020972,2.004725372707844,-1.3442284968435765
2024-12-04 21:58:13.322789600,11.09678955078125,0.700110216589272,1.6508768634796145,-1.2783476191788912
2024-12-04 21:58:13.332864800,11.10686474609375,-0.439824372677505,1.5840847161889076,-1.0369777804002165
2024-12-04 21:58:13.342939600,11.116939697265623,-1.893693101674318,1.9341671508818865,-1.1455825320258737
2024-12-04 21:58:13.353014800,11.127014892578124,-2.9181507154583928,2.3449024994581937,-1.4851456185311078
2024-12-04 21:58:13.363090000,11.13708984375,-3.153717420916259,2.432811669057608,-1.5653475747540593
2024-12-04 21:58:13.373164500,11.14716455078125,-3.0917376423433423,2.1985592610687017,-1.4815803272649646
2024-12-04 21:58:13.383239700,11.15723974609375,-3.2160879523724315,1.9770751492381096,-1.3485150881215928
2024-12-04 21:58:13.393314800,11.167314697265626,-3.262697435595095,2.3441747697055337,-1.7222098690703511
2024-12-04 21:58:13.403390000,11.177389892578123,-2.509585988919437,3.083088179680705,-2.341267065565288
2024-12-04 21:58:13.413465900,11.1874658203125,-1.0605737600430845,3.623640579259396,-2.6902812865048644
2024-12-04 21:58:13.423540700,11.197540771484377,0.5148670464411378,3.845778771084547,-2.755057125537097
2024-12-04 21:58:13.433616000,11.207615966796874,1.960686032234132,3.818909468859434,-2.7280606898009774
2024-12-04 21:58:13.443690800,11.217690673828123,3.4159593673318622,3.4094723434001204,-2.697316007447242
2024-12-04 21:58:13.453766000,11.227765869140624,4.895587391485273,2.713617153906822,-2.6059362391278147
2024-12-04 21:58:13.463840800,11.2378408203125,6.1285091842681165,2.07940739646554,-2.6341464345678687
2024-12-04 21:58:13.473916000,11.247916015625,7.169336333572864,1.655536087462306,-2.6633669760942458
2024-12-04 21:58:13.483990800,11.25799072265625,7.865466832876205,1.476090789937973,-2.6299150806084275
2024-12-04 21:58:13.494065700,11.268065673828126,7.966009274077415,1.689766273844242,-2.710797128050029
2024-12-04 21:58:13.504140800,11.278140869140625,7.423844178605079,2.3292460806429385,-2.927335892432928
2024-12-04 21:58:13.514215700,11.288215576171876,6.3221665470182895,3.270481805860996,-3.423677394363284
2024-12-04 21:58:13.524290800,11.298290771484377,5.594181942814588,3.651775955897569,-3.589963058324158
2024-12-04 21:58:13.534366700,11.30836669921875,4.637335391488671,3.6776246829032897,-3.618870588378608
2024-12-04 21:58:13.544441600,11.318441650390625,3.25204832354784,3.6514573914676896,-3.628069501617551
2024-12-04 21:58:13.554516700,11.328516845703126,1.4100555984944103,3.3431372922271487,-3.2334570203244684
2024-12-04 21:58:13.564591900,11.338591796875,-0.976565397274494,2.9249440288603306,-2.574787944409251
2024-12-04 21:58:13.574666800,11.348666748046876,-4.332905869945884,2.1448270863592622,-1.7290534513548017
2024-12-04 21:58:13.584742000,11.358741943359377,-6.472665736043453,0.471367219671607,-0.1263014440968632
2024-12-04 21:58:13.594817000,11.368817138671876,-8.862793863150477,-0.5862222638636827,2.313290094359219
2024-12-04 21:58:13.604892000,11.378891845703125,-9.81297101971507,-0.5994125848263502,2.614018423296511
2024-12-04 21:58:13.614966800,11.388966796875,-9.522657701808214,-0.2315782203435897,1.8866279855936765
2024-12-04 21:58:13.625041700,11.399041748046876,-8.37305862761736,0.1608802977859973,1.291529756835103
2024-12-04 21:58:13.635116800,11.40911669921875,-6.115617553991079,0.1914823567986488,0.925439897932112
2024-12-04 21:58:13.645192000,11.41919189453125,-5.561076961070299,-0.7401917593479156,0.9758075646445156
2024-12-04 21:58:13.655266800,11.429266845703124,-4.107240088516473,-1.449852186831832,0.4911722825989127
2024-12-04 21:58:13.665342700,11.4393427734375,3.1949872966766355,-1.717644460850954,-1.6728312133952974
2024-12-04 21:58:13.675417900,11.44941796875,6.76085022522807,-2.2510955039918423,-3.5183474363997576
2024-12-04 21:58:13.685492700,11.45949267578125,6.584399433344602,-2.64974410893321,-3.5633971229597923
2024-12-04 21:58:13.695568000,11.46956787109375,5.011045370006561,-2.7511072188675403,-2.8261431706294418
2024-12-04 21:58:13.705642800,11.479642822265625,0.1062602343261241,-2.46240425876677,-2.029249865372478
2024-12-04 21:58:13.715718000,11.4897177734375,-5.535037679928541,-2.0890221970289944,-0.9253127644211052
2024-12-04 21:58:13.725792800,11.499792724609376,-6.7928270797252654,-1.6435416982859372,0.4680681781262159
2024-12-04 21:58:13.735867600,11.50986767578125,-4.277998806238174,-0.8359662554949522,1.5294330885469911
2024-12-04 21:58:13.745942800,11.51994287109375,-1.7504511903010307,-0.2448094578385353,1.6769623218506573
2024-12-04 21:58:13.756018000,11.530017822265624,-0.2109491276822984,0.0337771819174289,1.1950877366900443
2024-12-04 21:58:13.766092800,11.5400927734375,0.0828453103385865,0.191752405911684,0.9260527691334486
2024-12-04 21:58:13.776168000,11.55016796875,-0.8109481340944766,0.2724263635605573,0.7007739411950111
2024-12-04 21:58:13.786242800,11.560242919921874,-1.5678772393621505,0.3090735479563474,0.542308303335309
2024-12-04 21:58:13.796317700,11.570317626953123,-1.7582918207988143,0.3365665350377559,0.2811427539795637
2024-12-04 21:58:13.806393900,11.580393798828124,-1.5654831838324663,0.1867956602871417,0.2668734056085348
2024-12-04 21:58:13.816468700,11.59046875,-1.2816966373458505,-0.1057885251611471,0.562899840465188
2024-12-04 21:58:13.826543900,11.6005439453125,-1.2813532307356594,-0.2484574589520692,0.7691378678470849
2024-12-04 21:58:13.836619000,11.610618896484375,-1.3704723606467246,-0.1373310798943042,0.7920394354850053
