time,seconds_elapsed,z,y,x
2024-12-04 22:06:59.285675300,0.01467529296875,0.6949474269986152,0.1123925265360623,0.5625524883322417
2024-12-04 22:06:59.295701200,0.024701171875,0.9537047461688518,-0.1369033560015261,0.6225671043120324
2024-12-04 22:06:59.305727200,0.034727294921875,1.2563935615241526,-0.4065349742770194,0.8423248307414353
2024-12-04 22:06:59.315754500,0.04475439453125,1.5468050791084766,-0.5689249459736049,1.039412606331706
2024-12-04 22:06:59.325780500,0.054780517578125,1.764060759589076,-0.6380717666316778,0.9529971824213862
2024-12-04 22:06:59.335807200,0.06480712890625,2.2096897268921136,-0.5129579979494214,0.6069290979363023
2024-12-04 22:06:59.345833200,0.074833251953125,2.3077035263985395,-0.496822198119387,0.9000114421650767
2024-12-04 22:06:59.355859200,0.084859130859375,1.8432780886888505,-0.7153963407874107,1.2228063492208718
2024-12-04 22:06:59.365886200,0.09488623046875,1.7250947768568992,-0.9587412790313362,1.2145265966534613
2024-12-04 22:06:59.375912400,0.104912353515625,1.7820944289296865,-0.9995939522929488,1.1612890735931694
2024-12-04 22:06:59.385938400,0.1149384765625,1.7280103720426558,-0.9429085538011044,0.9742958449073136
2024-12-04 22:06:59.395965400,0.12496533203125,1.911297147426009,-0.7723195666231214,0.9123350632958114
2024-12-04 22:06:59.405991400,0.134991455078125,2.11124279666543,-0.6215712982077151,1.0217546384356917
2024-12-04 22:06:59.416018200,0.14501806640625,2.34902980852127,-0.4464478824704885,1.0725989827491342
2024-12-04 22:06:59.426044200,0.155044189453125,2.260754728218913,-0.2926107811942696,0.9125940795581788
2024-12-04 22:06:59.436070100,0.165070068359375,1.9661223780691623,-0.1908908206462859,0.5747068903759122
2024-12-04 22:06:59.446097400,0.175097412109375,1.9003771094828843,-0.1094199404660612,0.3423062477335333
2024-12-04 22:06:59.456123400,0.185123291015625,2.1391256598472594,-0.1167012565806508,0.3412756625767797
2024-12-04 22:06:59.466150400,0.195150390625,2.647754396420717,0.3088117552150041,0.7955367760814726
2024-12-04 22:06:59.476176400,0.20517626953125,2.69739550242424,0.5158662135463208,1.8457643525466323
2024-12-04 22:06:59.486202000,0.2152021484375,2.603762109959125,0.4296544955145567,2.6655761765763164
2024-12-04 22:06:59.496229400,0.2252294921875,3.5265737052142616,0.7902413730870932,2.1900068290397523
2024-12-04 22:06:59.506255400,0.23525537109375,4.383663412758708,1.0314183927074074,1.829523557972163
2024-12-04 22:06:59.516282400,0.245282470703125,4.233825902512669,0.3822879103142768,2.2451506241127848
2024-12-04 22:06:59.526308400,0.255308349609375,3.757822255212069,-0.4495598039459437,2.709428177784383
2024-12-04 22:06:59.536334300,0.265334228515625,3.1474463778227566,-0.8842327852096408,2.613411397314072
2024-12-04 22:06:59.546361000,0.275361083984375,2.649249018892646,-1.2789014536693692,1.9471040816053744
2024-12-04 22:06:59.556387300,0.28538720703125,2.5539070689439773,-1.3160903437264262,1.735305351356417
2024-12-04 22:06:59.566413300,0.295413330078125,2.1274229470938444,-1.3431617443948984,1.848338294687867
2024-12-04 22:06:59.576440300,0.3054404296875,1.416330440980196,-1.3765642477810385,1.6928789990372954
2024-12-04 22:06:59.586466300,0.31546630859375,0.7338508658885955,-1.3173330372639,1.1163419706247746
2024-12-04 22:06:59.596493300,0.325493408203125,1.316455523777008,-0.7424455296240746,0.8240775186501443
2024-12-04 22:06:59.606519300,0.335519287109375,2.1320944460362194,0.0574584834898821,1.5798356804423033
2024-12-04 22:06:59.616545300,0.345545166015625,1.7991484395831825,0.4022722387986257,2.2926710847005247
2024-12-04 22:06:59.626572300,0.355572265625,0.8925555732011794,0.3592916501302272,2.516615449164808
2024-12-04 22:06:59.636598300,0.365598388671875,0.0102770638644695,0.1602824049580842,1.847119858808816
2024-12-04 22:06:59.646625300,0.375625244140625,-0.1771007802248001,-0.385913480400294,0.4644119937062263
2024-12-04 22:06:59.656651300,0.3856513671875,0.2764092957168817,-0.7235678106747567,-0.2702574950888752
2024-12-04 22:06:59.666677200,0.39567724609375,0.6454810930401086,-0.8515534084662795,-0.8667112301096319
2024-12-04 22:06:59.676704500,0.40570458984375,0.0446919591635465,-1.2855575505577026,-1.2751631439238786
2024-12-04 22:06:59.686730500,0.41573046875,-0.291080795148015,-1.5369668450526892,-1.5317723451495169
2024-12-04 22:06:59.696756500,0.425756591796875,0.9495441193580628,-1.3605328581735492,-0.5785556747585535
2024-12-04 22:06:59.706783200,0.435783203125,0.5009802676469087,-1.0316172032151372,1.621794269119203
2024-12-04 22:06:59.716809200,0.445809326171875,-1.3303683137953282,-0.5648259496895596,2.5684403289482
2024-12-04 22:06:59.726836200,0.455836181640625,-2.1686948686808347,-0.1191704962383955,1.9237682142034167
2024-12-04 22:06:59.736862500,0.465862548828125,-1.6879630238145589,-0.1790475669110193,1.0332195969104767
2024-12-04 22:06:59.746888400,0.475888427734375,-1.3897370330870151,-0.6493639988880604,0.267145208287239
2024-12-04 22:06:59.756915500,0.48591552734375,-1.4287702358365058,-1.3144680032216012,0.1802896393939852
2024-12-04 22:06:59.766941200,0.495941162109375,-0.050399815416336,-1.3459323781520127,-1.7176599506810306
2024-12-04 22:06:59.776968200,0.50596826171875,2.8942794260054825,-0.7689157495290041,-2.8191157562106848
2024-12-04 22:06:59.786994200,0.515994140625,4.591309553372859,-0.066684850991331,-2.5516534447982906
2024-12-04 22:06:59.797020400,0.5260205078125,3.198610163348913,0.3149113507317378,-3.068825845572352
2024-12-04 22:06:59.807047400,0.53604736328125,0.2731651992291212,0.9110404203753918,-3.026958880701661
2024-12-04 22:06:59.817073400,0.546073486328125,-1.9324007257312528,1.74747319740355,-2.0504858378857374
2024-12-04 22:06:59.827100200,0.55610009765625,-2.9514953511774538,2.109206614662707,-1.2710741210445762
2024-12-04 22:06:59.837126100,0.566126220703125,-3.044858694529533,1.9499387205094096,-1.1881406940311192
2024-12-04 22:06:59.847152000,0.576152099609375,-2.300207033163309,1.6739814063437282,-1.8577479280680416
2024-12-04 22:06:59.857179400,0.586179443359375,-0.9717851772606372,2.355183947236836,-1.5429901969954372
2024-12-04 22:06:59.867205400,0.596205322265625,-1.3245949910908936,2.495675536988676,-1.0171160188496111
2024-12-04 22:06:59.877231400,0.6062314453125,-1.1493261024683714,2.891845476856828,-0.3816334649935364
2024-12-04 22:06:59.887258400,0.61625830078125,-1.0119289716005324,3.5738194405138493,0.3432771385923028
2024-12-04 22:06:59.897284400,0.626284423828125,-1.124247775313258,3.5615970878005028,-0.061655076663196
2024-12-04 22:06:59.907311600,0.6363115234375,0.9738140527397392,4.602008934302628,0.1814920009210705
2024-12-04 22:06:59.917337600,0.646337646484375,2.5398984173357486,4.302341512595117,1.42137720297575
2024-12-04 22:06:59.927363600,0.656363525390625,2.827099156180024,4.424845902496576,2.2114114361181856
2024-12-04 22:06:59.937390600,0.666390625,4.345604023477435,4.374921303376556,4.433768629142642
2024-12-04 22:06:59.947416600,0.67641650390625,3.139540134742856,2.9794951187372205,3.2161198088154195
2024-12-04 22:06:59.957443600,0.686443603515625,2.4418606524318456,3.6799995953410862,2.814419122827053
2024-12-04 22:06:59.967469600,0.696469482421875,1.9791005175858736,3.475204167982936,1.7124886855229735
2024-12-04 22:06:59.977495600,0.70649560546875,-0.1301835462272167,2.5713901186645027,-0.7442609084829688
2024-12-04 22:06:59.987522600,0.7165224609375,0.7626181106895208,3.325343569122255,0.4884764676436781
2024-12-04 22:06:59.997548500,0.726548583984375,2.743465179681778,3.385112685908377,1.3991773538663983
2024-12-04 22:07:00.007574500,0.736574462890625,3.5022207697242496,2.517224813234806,1.511167948538065
2024-12-04 22:07:00.017601500,0.7466015625,4.492886588543653,1.7916934474021196,2.058427444539964
2024-12-04 22:07:00.027627500,0.75662744140625,4.629015891432762,1.4621563726097344,2.796711032178998
2024-12-04 22:07:00.037654500,0.766654541015625,3.394744729867577,1.967070180313289,3.934935310396552
2024-12-04 22:07:00.047680500,0.776680419921875,2.825831912723184,1.3580612073630094,4.174811111225187
2024-12-04 22:07:00.057706500,0.78670654296875,2.1419728659719226,0.52541883559376,4.078708113776147
2024-12-04 22:07:00.067733500,0.7967333984375,2.189942239370942,0.7143968083560467,3.488144313576817
2024-12-04 22:07:00.077759500,0.806759521484375,2.692992299029231,1.6260434509962796,2.583730544799566
2024-12-04 22:07:00.087786800,0.816786865234375,3.237229524600506,2.619987853094935,1.690704431477189
2024-12-04 22:07:00.097812700,0.826812744140625,2.88648716469407,3.326663711810112,0.4212473902404308
2024-12-04 22:07:00.107838700,0.836838623046875,3.56232890920639,3.955436246633529,-0.9809101484805344
2024-12-04 22:07:00.117865500,0.846865478515625,3.695162677681446,3.856089152696729,-2.265342932792008
2024-12-04 22:07:00.127891500,0.856891357421875,0.8283692244946956,4.649692768758535,-3.535209431612492
2024-12-04 22:07:00.137918500,0.86691845703125,-3.794524969187379,5.889407582682371,-4.837786652162671
2024-12-04 22:07:00.147944400,0.8769443359375,-3.510312306243181,5.972274081939458,-6.080591833317279
2024-12-04 22:07:00.157970700,0.886970703125,0.2525374217420816,4.531380862110853,-7.684372599101066
2024-12-04 22:07:00.167997700,0.896997802734375,0.9394710536330938,4.479167859792709,-8.488392979758977
2024-12-04 22:07:00.178023700,0.907023681640625,-1.3455413330078123,4.591386710262299,-8.34746825928688
2024-12-04 22:07:00.188049700,0.917049560546875,-2.7462860823214053,4.749233923962712,-8.369919160547852
2024-12-04 22:07:00.198076400,0.927076416015625,-4.117323091113567,4.661681312716007,-8.191977253323794
2024-12-04 22:07:00.208102400,0.937102294921875,-3.492378590145707,4.40270012166202,-7.86044111366868
2024-12-04 22:07:00.218129700,0.947129638671875,-3.122661480656266,3.9580321083456274,-7.587271822786331
2024-12-04 22:07:00.228155600,0.95715576171875,-3.595691080582142,3.219545399349928,-7.4175009470582
2024-12-04 22:07:00.238181600,0.967181640625,-4.788091185623407,2.497006201070547,-7.0394754434287545
2024-12-04 22:07:00.248208600,0.977208740234375,-5.612509626665712,2.2864777830183503,-6.925189723557233
2024-12-04 22:07:00.258234600,0.987234619140625,-6.246556302499771,1.8280892873853445,-7.779967062506079
2024-12-04 22:07:00.268261600,0.99726171875,-6.692644704008102,1.301947690474987,-8.130393196070195
2024-12-04 22:07:00.278287600,1.00728759765625,-6.138140351444482,1.3188812896192073,-8.085063523525
2024-12-04 22:07:00.288313600,1.017313720703125,-5.992271744829416,1.4103285702168942,-5.474937139230966
2024-12-04 22:07:00.298340600,1.027340576171875,-5.918383501797914,0.9157377113461492,-2.177330887340009
2024-12-04 22:07:00.308366600,1.03736669921875,-5.74341564194858,0.1613596057355403,1.0335393303841351
2024-12-04 22:07:00.318392600,1.047392578125,-6.428562390422821,-0.5224550173521042,3.776028066249192
2024-12-04 22:07:00.328419600,1.057419677734375,-7.865937957519292,-1.1295716006845236,4.62385222505927
2024-12-04 22:07:00.338445600,1.067445556640625,-9.053387746676805,-1.345422675064206,3.035935675622522
2024-12-04 22:07:00.348472600,1.07747265625,-9.149236477103829,-1.600423272049427,-1.3371055130958556
2024-12-04 22:07:00.358498600,1.08749853515625,-8.854201975893973,-0.9695055418908596,-4.337486475734412
2024-12-04 22:07:00.368524500,1.097524658203125,-7.79100692743659,0.5515951871186494,-4.487672945548594
2024-12-04 22:07:00.378551600,1.107551513671875,-6.038655894863605,1.210135083696246,-3.8039357716113327
2024-12-04 22:07:00.388577500,1.11757763671875,-3.1339293091237543,2.5270780987292527,-2.908292169266939
2024-12-04 22:07:00.398604500,1.1276044921875,-0.3783854960482567,3.5231232724994417,-2.969869796779752
2024-12-04 22:07:00.408630500,1.137630615234375,0.5250105105211959,3.524120466843247,-5.0321781744062895
2024-12-04 22:07:00.418656500,1.147656494140625,-0.0863093331873416,3.405450248277188,-6.21731442592442
2024-12-04 22:07:00.428683500,1.15768359375,-1.06964824318476,3.0712691470712423,-5.795196098068356
2024-12-04 22:07:00.438709500,1.16770947265625,-1.4720517436802387,2.0157354270219803,-6.533586945474148
2024-12-04 22:07:00.448735500,1.177735595703125,-2.487438746780157,1.2012696401953695,-5.946668516039848
2024-12-04 22:07:00.458762800,1.1877626953125,-1.658508381271362,1.8178367734402416,-2.932686313550174
2024-12-04 22:07:00.468788700,1.197788818359375,0.553315435039997,1.4604630126953124,-1.970822810845077
2024-12-04 22:07:00.478815500,1.2078154296875,0.8072551247954368,1.25132575674057,-2.55073136151731
2024-12-04 22:07:00.488841500,1.217841552734375,-0.2621931388378143,0.611117635667324,-4.235186377210915
2024-12-04 22:07:00.498867500,1.227867431640625,-1.1867606378495692,-0.2762847925543785,-0.4177244768112897
2024-12-04 22:07:00.508894700,1.237894775390625,-2.3903695346474647,-2.749046779206395,0.775010851533711
2024-12-04 22:07:00.518920700,1.247920654296875,-3.162631964255869,-3.908271759876609,1.9943419258594512
2024-12-04 22:07:00.528947700,1.25794775390625,-4.032840973353386,-4.005667719745635,4.1600747298643
2024-12-04 22:07:00.538973700,1.2679736328125,-3.968386036838591,-5.103565832793712,6.072334292581677
2024-12-04 22:07:00.548999400,1.27799951171875,-3.647695700846613,-6.296136033704877,7.020829779669642
2024-12-04 22:07:00.559026400,1.2880263671875,-4.670174415773153,-7.313256728729605,6.713012369254231
2024-12-04 22:07:00.569052400,1.298052490234375,-4.732256485676765,-7.465412452790141,6.013928865364194
2024-12-04 22:07:00.579078700,1.30807861328125,-3.245006003820896,-6.634364364475012,3.848015151834488
2024-12-04 22:07:00.589105700,1.318105712890625,-2.2448573402546343,-6.714122376322746,0.787304808178544
2024-12-04 22:07:00.599131600,1.328131591796875,0.2126934871315956,-6.253208161604404,-1.2634914108306168
2024-12-04 22:07:00.609158400,1.338158447265625,3.907082257831096,-4.717990059915184,-3.272586669185757
2024-12-04 22:07:00.619184400,1.348184326171875,3.216149327170849,-3.7420103535741567,1.4035913709163663
2024-12-04 22:07:00.629210400,1.35821044921875,2.909567596030235,-5.287126164421439,1.903772012618184
2024-12-04 22:07:00.639237600,1.368237548828125,2.898910592937469,-6.087457627433538,2.077698838981986
2024-12-04 22:07:00.649263600,1.378263671875,2.2533996892809864,-5.309604538211226,2.0740806484848258
2024-12-04 22:07:00.659290600,1.38829052734375,2.956338699555397,-4.199578180474043,1.526677067837119
2024-12-04 22:07:00.669316600,1.398316650390625,5.044961668133736,-2.8456700011372567,1.694725357556343
2024-12-04 22:07:00.679342600,1.408342529296875,5.657161838340759,-1.5055600455284115,2.39873404288888
2024-12-04 22:07:00.689369600,1.41836962890625,4.428793763339519,-0.4081517618238925,2.8008634756833315
2024-12-04 22:07:00.699395600,1.4283955078125,1.3181494682133197,0.7319505852252245,3.230449655202031
2024-12-04 22:07:00.709422600,1.438422607421875,-1.738032584363222,1.3521277256608009,2.4197061037689447
2024-12-04 22:07:00.719448600,1.448448486328125,-2.594067229896784,1.2737977007895709,1.596681747433543
2024-12-04 22:07:00.729474600,1.458474609375,-1.248488487488031,1.37704589381814,0.9529162261396646
2024-12-04 22:07:00.739501600,1.46850146484375,0.7484756035685539,2.5355145031630992,1.0058324082911014
2024-12-04 22:07:00.749527600,1.478527587890625,1.347864222997427,3.419406292915344,0.6156172851741314
2024-12-04 22:07:00.759553800,1.4885537109375,0.9661480481564998,2.9914608663409945,-0.4129296437501907
2024-12-04 22:07:00.769580500,1.49858056640625,0.1482768185342662,2.268441775590181,-2.342464458656311
2024-12-04 22:07:00.779606500,1.5086064453125,0.0452408617505803,2.105297040003538,-4.50400770201683
2024-12-04 22:07:00.789633500,1.518633544921875,-0.4080559002339839,1.907541009762883,-7.01436204496026
2024-12-04 22:07:00.799659500,1.528659423828125,-0.0671603960812091,2.1580308513253925,-8.053034062057733
2024-12-04 22:07:00.809685500,1.538685546875,1.0068448002040389,2.097655585339665,-8.041527748659252
2024-12-04 22:07:00.819712500,1.54871240234375,1.582898136752844,2.088539966470003,-7.75223208336234
2024-12-04 22:07:00.829738500,1.558738525390625,1.1016150877445936,2.9173288776814936,-7.009832584837079
2024-12-04 22:07:00.839765500,1.568765625,0.3301479001671075,3.504894372847676,-4.412852682363987
2024-12-04 22:07:00.849791500,1.57879150390625,0.1576964253191836,2.77026141667068,-1.109770337149501
2024-12-04 22:07:00.859817500,1.5888173828125,0.5795786245981231,2.2696628418177367,0.8375538169473409
2024-12-04 22:07:00.869844700,1.5988447265625,-0.5589916905781254,2.748713017207384,2.024984316882491
2024-12-04 22:07:00.879870700,1.60887060546875,-1.9641122072905304,2.790641941398382,2.532365683743357
2024-12-04 22:07:00.889896700,1.618896728515625,-2.3860908344149587,2.4170611422181127,3.0062562844127414
2024-12-04 22:07:00.899923500,1.62892333984375,-2.7024340811133385,2.852968341451883,3.281708717796206
2024-12-04 22:07:00.909949700,1.63894970703125,-2.2311077779740094,2.2772294776797293,2.5418998202860354
2024-12-04 22:07:00.919976700,1.648976806640625,-2.767657956174016,2.099972045588493,1.8006962535470723
2024-12-04 22:07:00.930002700,1.659002685546875,-1.7860598254293203,1.0021206942915917,1.117372044324875
2024-12-04 22:07:00.940028700,1.669028564453125,-1.2764261495970188,0.1562865402549505,0.5151473246872424
2024-12-04 22:07:00.950055700,1.6790556640625,-0.9421588314123452,-0.7822831806242465,0.1092792898863554
2024-12-04 22:07:00.960081700,1.68908154296875,-2.0584692378550766,-1.2849208600893616,-0.4983768071502447
2024-12-04 22:07:00.970108000,1.69910791015625,-2.437288814471662,-1.0589271618798377,-1.2796750683903693
2024-12-04 22:07:00.980134700,1.709134765625,-0.1081412257671356,-2.25713332285136,-2.224679790753126
2024-12-04 22:07:00.990160600,1.71916064453125,0.7517319750159979,-1.3886243956699966,-2.475852938404679
2024-12-04 22:07:01.000187600,1.729187744140625,0.0483083960950374,-0.5130898076355457,-3.675734339112043
2024-12-04 22:07:01.010213600,1.739213623046875,0.290068110974133,-0.3554442539870738,-4.607410208824277
2024-12-04 22:07:01.020239600,1.749239501953125,0.5537918203800917,0.1049585040777921,-3.9858629490792734
2024-12-04 22:07:01.030267000,1.759266845703125,1.3953119106099008,0.4558230290591716,-3.215876355448365
2024-12-04 22:07:01.040292900,1.76929296875,2.600539640781283,1.2479285155177116,-2.526159814840555
2024-12-04 22:07:01.050319600,1.779319580078125,3.2107635424792766,2.2259905810907483,-2.042364490750432
2024-12-04 22:07:01.060345600,1.789345703125,2.657227742686868,2.609361537401378,-0.7029951243758201
2024-12-04 22:07:01.070371600,1.79937158203125,2.0213000754117965,2.758326648727059,1.0356529615372418
2024-12-04 22:07:01.080398800,1.80939892578125,1.5473846325621008,3.1824019558697936,2.49384978286624
2024-12-04 22:07:01.090424800,1.8194248046875,1.158980065998435,3.613499124473333,3.2585598973989485
2024-12-04 22:07:01.100450800,1.829450927734375,0.5180024218574166,3.795097508378327,3.519958086466789
2024-12-04 22:07:01.110477600,1.8394775390625,0.2443736967697739,4.132652177670598,4.032288015645742
2024-12-04 22:07:01.120503600,1.849503662109375,0.128166945707798,3.810861771482229,4.285978699076176
2024-12-04 22:07:01.130530600,1.859530517578125,0.0101215810418128,3.4847125855624674,4.343578070607781
2024-12-04 22:07:01.140556500,1.869556640625,0.3379144425153732,3.063410542525351,3.963047890681028
2024-12-04 22:07:01.150582800,1.879582763671875,0.8161480408251285,2.4992434586033223,3.327479119846225
2024-12-04 22:07:01.160609800,1.88960986328125,1.2596540246248245,2.005983848336339,2.721111893576384
2024-12-04 22:07:01.170635800,1.8996357421875,1.5960212376981973,1.5644535485237836,2.1948241661936043
2024-12-04 22:07:01.180662500,1.90966259765625,1.6733920621484517,1.1938041266202926,1.7015835528880356
2024-12-04 22:07:01.190688500,1.9196884765625,1.5669062023729086,1.0574559202834963,1.635298770597577
2024-12-04 22:07:01.200714500,1.929714599609375,1.465408067882061,0.9930749257877468,1.756639669677615
2024-12-04 22:07:01.210741800,1.93974169921875,1.633756217330694,0.6476657436028123,1.84954533239007
2024-12-04 22:07:01.220767700,1.949767822265625,1.7314754178047178,0.1577835008144378,1.8879343920171257
2024-12-04 22:07:01.230793700,1.959793701171875,1.6158873831629752,-0.239533855523169,2.0439678342938423
2024-12-04 22:07:01.240820700,1.96982080078125,1.3627905739724635,-0.7130018468663096,2.2533470823109147
2024-12-04 22:07:01.250846700,1.9798466796875,0.7440285610318184,-1.2385384636208414,2.610810859426856
2024-12-04 22:07:01.260873700,1.989873779296875,0.1049672719061374,-1.5061179716721176,3.0093875681757924
2024-12-04 22:07:01.270899700,1.999899658203125,-0.1070598602712154,-1.5955746629744767,3.1180893504351377
2024-12-04 22:07:01.280925700,2.00992578125,-0.123256377312541,-1.7317422520473598,3.288296864014864
2024-12-04 22:07:01.290952700,2.01995263671875,0.1878793638706207,-1.6798337856337426,3.428423127585649
2024-12-04 22:07:01.300978700,2.029978759765625,0.5909574756920337,-1.517693258653581,3.3195898279011247
2024-12-04 22:07:01.311005700,2.040005615234375,0.8786135570883751,-1.4980036387994884,2.702693608832359
2024-12-04 22:07:01.321032000,2.050031982421875,0.878240632122755,-1.2780343154460192,1.802533990368247
2024-12-04 22:07:01.331057700,2.0600576171875,0.783813458931446,-0.8683820859313011,0.9972551340818404
2024-12-04 22:07:01.341084700,2.070084716796875,0.9495669157117604,-0.6299275500774383,0.3820622117996216
2024-12-04 22:07:01.351110700,2.080110595703125,1.2304723538041114,-0.5252320808500052,-0.0248620540559291
2024-12-04 22:07:01.361137700,2.0901376953125,1.4582809924811124,-0.4249950523361563,-0.1630593953907489
2024-12-04 22:07:01.371163600,2.10016357421875,1.6299638393104074,-0.5227224361166357,-0.2654255448877811
2024-12-04 22:07:01.381189600,2.110189697265625,1.6465221754014492,-0.5635746709868311,-0.6257932267516851
2024-12-04 22:07:01.391216600,2.120216552734375,1.7925211303979158,-0.470048538288474,-0.926616832756996
2024-12-04 22:07:01.401242600,2.13024267578125,2.0690257031828163,-0.4359603907257318,-1.1011457166671752
2024-12-04 22:07:01.411268600,2.1402685546875,2.3182313501536846,-0.3326198432385921,-1.1493915689200165
2024-12-04 22:07:01.421295600,2.150295654296875,2.4375468808859586,-0.1506181392297148,-1.3399959738403555
2024-12-04 22:07:01.431321600,2.160321533203125,2.234965037924052,-0.087009882672131,-1.584867390999198
2024-12-04 22:07:01.441348900,2.170348876953125,1.7565362093031405,-0.0268573195263743,-1.5876771877229212
2024-12-04 22:07:01.451374800,2.180374755859375,1.2489672109156846,0.0359384516045451,-1.4255653023153545
2024-12-04 22:07:01.461400800,2.19040087890625,0.7678104186356067,0.0985074282422661,-1.21141460211277
2024-12-04 22:07:01.471427600,2.200427490234375,0.299788417738676,0.2123471579119563,-1.0676385838627815
2024-12-04 22:07:01.481453600,2.21045361328125,-0.1244634150147438,0.419909711895883,-0.9824076935619116
2024-12-04 22:07:01.491480600,2.22048046875,-0.503385575222969,0.5913967438921331,-0.968009165853262
2024-12-04 22:07:01.501506800,2.2305068359375,-1.054899513798952,0.792060478273034,-1.1139426543980837
2024-12-04 22:07:01.511532800,2.24053271484375,-1.6680489475548266,1.0970175308212635,-1.3067179736167192
2024-12-04 22:07:01.521559800,2.250559814453125,-2.213238359284401,1.5511600594475865,-1.421298877042532
2024-12-04 22:07:01.531585800,2.260585693359375,-2.817769017776847,2.05162887044102,-1.344262399113178
2024-12-04 22:07:01.541611800,2.27061181640625,-3.413298039168119,2.365270164704323,-1.2257318812787532
2024-12-04 22:07:01.551638500,2.280638427734375,-3.943196942785382,2.618240132644772,-0.912146408855915
2024-12-04 22:07:01.561664500,2.29066455078125,-3.9450364331722256,2.760699223077297,-0.4897621235400438
2024-12-04 22:07:01.571691800,2.30069189453125,-3.359187094274163,2.542433781032264,-0.4468699072748422
2024-12-04 22:07:01.581717800,2.3107177734375,-3.001761311081052,2.4667560242354867,-1.2122756028562784
2024-12-04 22:07:01.591743700,2.32074365234375,-2.8835224696695803,2.583662447999417,-2.073133723023534
2024-12-04 22:07:01.601770800,2.330770751953125,-2.277733335548639,3.098254184630513,-3.1242092946201563
2024-12-04 22:07:01.611796700,2.340796630859375,-0.8909270952165126,3.900048413671553,-4.108260663735867
2024-12-04 22:07:01.621823700,2.35082373046875,0.237827343866229,3.936705827200413,-4.888841716617345
2024-12-04 22:07:01.631849700,2.360849609375,0.4367828130245208,3.546144667124748,-4.462321354410052
2024-12-04 22:07:01.641875700,2.370875732421875,0.2717208456397056,2.9984172613501547,-3.151274996200204
2024-12-04 22:07:01.651902700,2.38090283203125,0.8394844927489757,2.672095641472936,-2.349780919149518
2024-12-04 22:07:01.661928700,2.3909287109375,1.5223182881057262,2.227165177828073,-2.060081349226832
2024-12-04 22:07:01.671954700,2.40095458984375,3.1761189300775525,2.2666277119055387,-3.727772569385171
2024-12-04 22:07:01.681981700,2.410981689453125,2.523629419580102,1.3054691425994038,-5.325274401029944
2024-12-04 22:07:01.692007700,2.421007568359375,1.837604719227552,1.8615210168659688,-5.404411650630832
2024-12-04 22:07:01.702034700,2.43103466796875,1.3876888683855533,1.7099284796461462,-4.609062067684531
2024-12-04 22:07:01.712060700,2.441060791015625,1.4548562787294388,1.19571142154634,-3.342462169444561
2024-12-04 22:07:01.722086700,2.451086669921875,1.1392694033563135,0.3603527765557169,-1.705105881795287
2024-12-04 22:07:01.732113700,2.46111376953125,0.0356672334477305,-1.2201701554983853,-0.4170212969779968
2024-12-04 22:07:01.742139600,2.4711396484375,-1.0275704851076006,-1.5879957521528003,0.9435901793897152
2024-12-04 22:07:01.752166700,2.481166748046875,-0.8358414600715041,-1.1226707352548837,1.947978234091401
2024-12-04 22:07:01.762192600,2.491192626953125,-0.053510640913248,-1.124965860454738,2.058474498552084
2024-12-04 22:07:01.772218600,2.501218505859375,0.1891580055043101,-1.4940578237831592,2.1325772611171008
2024-12-04 22:07:01.782245600,2.51124560546875,-1.7192302687376737,-2.912258442549408,2.2551637763440606
2024-12-04 22:07:01.792271600,2.521271728515625,-5.777063644528389,-5.077343596300483,3.581779459607601
2024-12-04 22:07:01.802297600,2.531297607421875,-8.997568244299291,-6.480441046220064,4.653074227890372
2024-12-04 22:07:01.812324900,2.541324951171875,-9.25081878274679,-6.637198126596212,4.551317150202394
2024-12-04 22:07:01.822350800,2.551350830078125,-6.410720444262028,-4.910415250521898,3.551834987720847
2024-12-04 22:07:01.832377600,2.561377685546875,-4.407397047306597,-3.584499824482202,2.441522214257717
2024-12-04 22:07:01.842403600,2.571403564453125,-3.643761576268077,-2.966271480026841,3.38675723824501
2024-12-04 22:07:01.852429600,2.5814296875,-2.839942855662107,-2.782264573675394,3.705082598671317
2024-12-04 22:07:01.862456800,2.591456787109375,-0.8392674889974295,-2.6701483067974445,2.956560233351588
2024-12-04 22:07:01.872482800,2.60148291015625,1.1669887465395032,-0.3700260293081402,2.7102240043371912
2024-12-04 22:07:01.882509800,2.611509765625,1.6747284253187478,1.5489105269551275,1.5749141522616148
2024-12-04 22:07:01.892535800,2.621535888671875,2.0432554482407865,2.016267341941595,0.4232423634499311
2024-12-04 22:07:01.902561800,2.631561767578125,3.481162784126401,3.364787106238305,1.2372720969468354
2024-12-04 22:07:01.912588800,2.6415888671875,5.678096489819884,4.446650907069444,1.773213787859678
2024-12-04 22:07:01.922614800,2.65161474609375,6.124453771397471,3.858076234860718,1.751052224934101
2024-12-04 22:07:01.932640800,2.661640869140625,3.881435775399208,2.396140227003396,2.11126091684401
2024-12-04 22:07:01.942667800,2.671667724609375,2.226250985592604,0.8549263920307159,1.7292852142840622
2024-12-04 22:07:01.952693800,2.68169384765625,1.000936599073559,-0.4374523828491568,0.8811153107762336
2024-12-04 22:07:01.962720800,2.691720703125,0.337083983040601,-0.6422358275085688,-0.0604880787104368
2024-12-04 22:07:01.972746800,2.701746826171875,0.5218253411464393,-0.5346797081530094,-0.7066817039340734
2024-12-04 22:07:01.982772700,2.711772705078125,0.5482715956538915,-0.2044657570123672,-0.7777858692049979
2024-12-04 22:07:01.992799700,2.7217998046875,0.7227934653013944,-0.0721481213659048,-0.6274585296154022
2024-12-04 22:07:02.002825700,2.73182568359375,0.3252086901992559,-0.2078895939812064,-0.3231716314136982
2024-12-04 22:07:02.012853000,2.74185302734375,-0.3076508216768503,-0.3440557217493653,0.5106494287461042
2024-12-04 22:07:02.022879000,2.75187890625,-0.8539357735581695,-0.5643894945010542,1.2612532765150068
2024-12-04 22:07:02.032905000,2.761905029296875,-0.5160520184420049,-0.3307920432895422,2.60910522455275
2024-12-04 22:07:02.042931700,2.771931640625,-0.1220838264018297,-0.1183244738683104,3.055586424770951
2024-12-04 22:07:02.052957700,2.781957763671875,-2.200732513454556,-0.1984299839794635,2.406988661015033
2024-12-04 22:07:02.062984700,2.791984619140625,-2.0395693070739505,0.2699816007569432,2.907913399082422
2024-12-04 22:07:02.073011000,2.802010986328125,-2.9497184046328067,-0.7497825945138931,2.397566168153286
2024-12-04 22:07:02.083037000,2.812036865234375,-3.912650413352251,-0.7841174103140831,2.462570262983441
2024-12-04 22:07:02.093064000,2.82206396484375,-6.499560757231712,-0.8246078261345624,2.296732635051012
2024-12-04 22:07:02.103090000,2.83208984375,-10.465410845851896,-2.610334181825817,1.6968138542681932
2024-12-04 22:07:02.113116000,2.842115966796875,-6.809247468650341,-4.42578932082653,1.7882465218186376
2024-12-04 22:07:02.123142700,2.852142578125,-10.660325515186786,-6.216300280445814,1.0798913317143917
2024-12-04 22:07:02.133168600,2.862168701171875,-7.055293190285563,-2.409391045981645,0.4481295519471168
2024-12-04 22:07:02.143196000,2.87219580078125,-0.796950588402152,0.0908995835870504,-2.1157512140005825
2024-12-04 22:07:02.153222000,2.882221923828125,3.3742274270176886,1.874725074093044,-3.2305256430476903
2024-12-04 22:07:02.163247900,2.892247802734375,6.028844110423326,1.0241481094434857,-3.12729790828526
2024-12-04 22:07:02.173275000,2.90227490234375,9.079674865099788,0.8502963941425085,-1.9638696307063104
2024-12-04 22:07:02.183300600,2.912300537109375,11.004176362013816,0.9716650580123066,-1.7547066557884214
2024-12-04 22:07:02.193327900,2.922327880859375,10.942238084495068,0.930870983070135,-0.6758171945929526
2024-12-04 22:07:02.203353900,2.932353759765625,10.42034420815706,0.3587044248268008,0.4615209484398365
2024-12-04 22:07:02.213379800,2.9423798828125,8.981062515178323,-0.9358537399187684,1.4310574699908494
2024-12-04 22:07:02.223406800,2.95240673828125,6.217571031033993,-1.5364616720095277,1.999628341829777
2024-12-04 22:07:02.233432800,2.962432861328125,2.532811673945188,-1.1338833264037966,0.9777209970504044
2024-12-04 22:07:02.243458800,2.972458740234375,-1.074612514528632,0.3332423590511083,-0.4799392331838607
2024-12-04 22:07:02.253485800,2.98248583984375,-4.70727518915534,1.6957742820873856,-0.8841437186866998
2024-12-04 22:07:02.263511800,2.99251171875,-7.595216059789061,2.617204359856248,0.3360778747379779
2024-12-04 22:07:02.273538800,3.002538818359375,-8.493764735925197,3.2734713430657982,1.7691525297701358
2024-12-04 22:07:02.283564800,3.012564697265625,-5.878769284290075,3.892282163584232,2.283132564243674
2024-12-04 22:07:02.293590800,3.0225908203125,-3.279309255439043,4.905585346147418,1.9469646731346844
2024-12-04 22:07:02.303617800,3.03261767578125,-1.531450858110189,5.422035570126772,1.0313695851296183
2024-12-04 22:07:02.313644000,3.04264404296875,-0.0486719869767315,5.038508546471595,0.4058376396626234
2024-12-04 22:07:02.323670800,3.0526708984375,1.36503513802886,4.954241532766819,0.1864239043653011
2024-12-04 22:07:02.333696800,3.06269677734375,5.111274507474899,5.012514858037233,-1.188506604734063
2024-12-04 22:07:02.343722800,3.07272265625,5.485027156090736,3.891005275516212,-5.063316239991784
2024-12-04 22:07:02.353749800,3.082749755859375,-0.1017184992432594,2.468826400768757,-7.764193739312887
2024-12-04 22:07:02.363775700,3.092775634765625,0.6326151817262172,1.7954688742876053,-7.265735099098086
2024-12-04 22:07:02.373803000,3.102802978515625,1.5997990026712416,0.5902332530707121,-7.214537411302327
2024-12-04 22:07:02.383829000,3.1128291015625,0.726477706772089,0.3636278527036309,-6.217259480866789
2024-12-04 22:07:02.393855000,3.12285498046875,-1.397605866765976,-0.5709069135710597,-6.8191972002565855
2024-12-04 22:07:02.403881700,3.1328818359375,-3.251365601980686,-1.59264942317754,-7.920646283784508
2024-12-04 22:07:02.413907700,3.14290771484375,-3.3986966823637483,-1.8030869480758904,-8.809688295906781
2024-12-04 22:07:02.423933700,3.15293359375,-2.216046402442456,-0.4801265724495053,-10.103486582195758
2024-12-04 22:07:02.433961000,3.1629609375,-1.1696177798688412,1.0905988959506154,-9.798381353348493
2024-12-04 22:07:02.443987000,3.172987060546875,-0.3121370271801948,1.0263093791306015,-6.691791302049159
2024-12-04 22:07:02.454014000,3.183013916015625,0.0368774860203266,-0.2047705851778387,-4.571786522257328
2024-12-04 22:07:02.464039700,3.193039794921875,-0.6932932300508022,-1.019742275699973,-2.5484119786590336
2024-12-04 22:07:02.474065700,3.203065673828125,-0.653541065376997,-0.9838707518517972,0.3470803302675485
2024-12-04 22:07:02.484092700,3.2130927734375,1.1696902605831625,-0.6616060061499476,2.749384048336744
2024-12-04 22:07:02.494119000,3.223118896484375,2.1882757674634457,-0.4746650921732187,4.370439189526438
2024-12-04 22:07:02.504146000,3.23314599609375,2.25744107362628,-0.9707008891552686,7.277951606592535
2024-12-04 22:07:02.514172000,3.243171875,1.377004392763972,-1.4064602043509482,10.570278749036788
2024-12-04 22:07:02.524198000,3.253197998046875,-0.0218085482368245,-1.5981886448651552,12.52142801437974
2024-12-04 22:07:02.534224600,3.263224609375,-0.1661678828001022,-1.1002464297398924,7.703011248597503
2024-12-04 22:07:02.544250600,3.273250732421875,-1.7162047834366558,1.0524912836134432,4.519900267675519
2024-12-04 22:07:02.554278000,3.28327783203125,-1.6922767953604458,1.5383414944067595,4.826495442819595
2024-12-04 22:07:02.564304000,3.293303955078125,-0.8137285585932433,1.4816712204188107,5.204922512987256
2024-12-04 22:07:02.574329900,3.303329833984375,-1.5125326610200107,1.97835262182802,5.044825474533439
2024-12-04 22:07:02.584356900,3.31335693359375,-1.863572542568296,1.5132541071623562,4.777371638688445
2024-12-04 22:07:02.594382800,3.3233828125,-0.9738602299690244,0.9286308029279112,4.316038321775197
2024-12-04 22:07:02.604408800,3.333408935546875,-0.1167003797978162,2.165693933299184,6.065071023580432
2024-12-04 22:07:02.614435800,3.343435791015625,3.966934961247444,2.6419945177197457,5.893689205524325
2024-12-04 22:07:02.624461800,3.3534619140625,-0.1661702208876609,4.115052223572135,0.0196370128840208
2024-12-04 22:07:02.634488800,3.36348876953125,0.0253743874922394,4.731420619374513,-0.8536416129171848
2024-12-04 22:07:02.644514800,3.373514892578125,1.533335356682539,3.476032143239677,-2.507028413391113
2024-12-04 22:07:02.654540800,3.383540771484375,0.8354054067417979,2.727038361015916,-3.667062372356653
2024-12-04 22:07:02.664567800,3.39356787109375,0.8086337196722626,1.4541399471536278,-3.8557168122529983
2024-12-04 22:07:02.674594000,3.403593994140625,-0.2100590469747781,-0.0232514039888978,-3.624217502364516
2024-12-04 22:07:02.684620800,3.413620849609375,-1.629224419119954,-1.7908578733608125,-3.8780209985196574
2024-12-04 22:07:02.694646800,3.423646728515625,-2.183360522893071,-2.1547063830778,-3.0327398021906613
2024-12-04 22:07:02.704672800,3.4336728515625,0.5262172924950719,-1.3210508887432515,-2.8925936648756263
2024-12-04 22:07:02.714699800,3.44369970703125,2.519068979796767,-1.1793693585544824,-3.580391804641485
2024-12-04 22:07:02.724725800,3.453725830078125,2.6400118194699287,-1.6243929073102772,-3.3561423197507856
2024-12-04 22:07:02.734752800,3.463752685546875,0.7443576468557119,-1.6620798100173473,-2.0176842230021954
2024-12-04 22:07:02.744778800,3.47377880859375,0.3757967216640711,-2.168273574528843,-0.5009545486837625
2024-12-04 22:07:02.754804700,3.4838046875,-0.1762351033061742,-2.056534470400214,0.7448223417580128
2024-12-04 22:07:02.764831700,3.493831787109375,0.3840945944100618,-1.9229279639869927,1.539652284744382
2024-12-04 22:07:02.774857700,3.503857666015625,1.3702847291201352,-0.6247393337845802,2.1640555184423924
2024-12-04 22:07:02.784883700,3.5138837890625,2.2808459146112203,0.5262774982497096,2.606772982212901
2024-12-04 22:07:02.794911000,3.523910888671875,2.736864173981547,0.5579699828475714,2.784226229137182
2024-12-04 22:07:02.804937000,3.53393701171875,1.6817419573426249,0.2689792918466031,2.963350624144077
2024-12-04 22:07:02.814963700,3.543963623046875,0.6822089414566755,0.8980320318508893,2.533558108398318
2024-12-04 22:07:02.824989700,3.55398974609375,0.5427238983988761,1.8186673790454864,2.5568974829316136
2024-12-04 22:07:02.835015700,3.564015625,0.7321352941423654,1.937207833752036,2.6562153507739303
2024-12-04 22:07:02.845042700,3.574042724609375,1.6317898856937885,1.7818667576536535,3.0321722314357755
2024-12-04 22:07:02.855069000,3.58406884765625,1.1199445251613855,2.575793906581401,2.5222464407891034
2024-12-04 22:07:02.865096000,3.594095947265625,1.6970669522464277,2.6429472883999345,1.6131436374127863
2024-12-04 22:07:02.875122000,3.604121826171875,1.9125106148689983,2.469914780527353,0.864633547052741
2024-12-04 22:07:02.885148000,3.61414794921875,0.8293056285619735,1.9339698747441167,-0.8517822487860918
2024-12-04 22:07:02.895174700,3.624174560546875,0.3358376362413168,2.063485896973312,-1.958395583209396
2024-12-04 22:07:02.905201200,3.634201171875,1.2983832759916782,1.413841400643438,-1.423721135753393
2024-12-04 22:07:02.915227100,3.64422705078125,1.5167536397159098,1.3315316584862769,-1.0805500878840684
2024-12-04 22:07:02.925254100,3.654254150390625,1.082730939054489,1.5507577622570097,-0.7723878095537423
2024-12-04 22:07:02.935280000,3.664280029296875,0.7700742719143628,1.236006899316609,-0.2550163790762424
2024-12-04 22:07:02.945307100,3.67430712890625,0.2350081947922706,1.5920970499917864,0.2855114705830812
2024-12-04 22:07:02.955333000,3.6843330078125,1.831674744656682,2.520354343432188,0.8768670056819915
2024-12-04 22:07:02.965359000,3.694359130859375,5.467379271197319,2.873827005085349,0.2518096919894218
2024-12-04 22:07:02.975386000,3.70438623046875,11.165862130963802,4.132331859675049,-0.2033387988090515
2024-12-04 22:07:02.985412000,3.714412109375,9.43580943943858,3.213217657633125,0.4374859928578138
2024-12-04 22:07:02.995439400,3.724439453125,-11.163644454914332,1.0725450606048106,-0.3950777607172727
2024-12-04 22:07:03.005465300,3.73446533203125,-5.44160244038403,-2.392538110858202,1.0303902187034486
2024-12-04 22:07:03.015491300,3.7444912109375,0.5451590165913105,-2.3820116022773083,3.046277913677692
2024-12-04 22:07:03.025518000,3.75451806640625,0.4169195901691913,-2.5561352663874626,-0.1033110291317105
2024-12-04 22:07:03.035544000,3.7645439453125,0.219574478816986,-3.319708778105676,-1.6394342629671097
2024-12-04 22:07:03.045571000,3.774571044921875,-0.9805208569020032,-4.434763485398888,-1.4430752400428055
2024-12-04 22:07:03.055597300,3.784597412109375,-1.1786194169700146,-5.122422508955002,-1.2076625561028718
2024-12-04 22:07:03.065623300,3.794623291015625,-1.4495862293720243,-6.100746148073673,-0.9576783259749412
2024-12-04 22:07:03.075650300,3.804650390625,-1.281415774577856,-6.283884454897046,-1.068491401299834
2024-12-04 22:07:03.085676300,3.81467626953125,-1.4076345088273283,-6.238831845727563,-1.0303490099102257
2024-12-04 22:07:03.095703000,3.824703125,-1.9949270322710275,-6.305903979003429,-0.2218020917385816
2024-12-04 22:07:03.105729000,3.83472900390625,-2.307069320148229,-6.227407949915528,0.4035352079391479
2024-12-04 22:07:03.115755000,3.844755126953125,-2.43191150534749,-5.965629821619391,0.7271446462482214
2024-12-04 22:07:03.125782300,3.8547822265625,-3.3253450304269787,-5.568823045152426,1.3638251777172088
2024-12-04 22:07:03.135808300,3.864808349609375,-3.979199399536848,-5.387067132598161,3.0195220086991785
2024-12-04 22:07:03.145834200,3.874834228515625,-3.6541257338941096,-5.826378002795576,4.311784755983949
2024-12-04 22:07:03.155861200,3.884861328125,-3.33065716536045,-4.6296731862977145,4.755033550152183
2024-12-04 22:07:03.165887200,3.89488720703125,-0.9834352830439804,-2.247901091864705,3.240901491111517
2024-12-04 22:07:03.175914200,3.904914306640625,2.066950650474429,0.4199203794203698,1.133891801971197
2024-12-04 22:07:03.185940200,3.914940185546875,1.8832021027982235,1.2716478292793034,0.3015799773305654
2024-12-04 22:07:03.195966200,3.92496630859375,1.656339805060625,1.782491757684201,2.321497073951364
2024-12-04 22:07:03.205993200,3.9349931640625,2.982600099015236,4.037317826506495,3.546772443634272
2024-12-04 22:07:03.216019200,3.945019287109375,3.7307016085743903,6.150947810569405,4.501764891526102
2024-12-04 22:07:03.226046200,3.955046142578125,3.4636247893482444,7.869419369894266,5.942572771158814
2024-12-04 22:07:03.236072200,3.965072265625,4.874131638741493,9.666148473376037,6.440576068821549
2024-12-04 22:07:03.246098200,3.97509814453125,4.468064281976223,10.36389225309491,4.52524981200993
2024-12-04 22:07:03.256125200,3.985125244140625,1.36753396910727,10.584328317177295,1.8789777631014584
2024-12-04 22:07:03.266151200,3.995151123046875,-3.7576732021301984,9.698881114676594,0.328908713760972
2024-12-04 22:07:03.276178200,4.00517822265625,-6.778702692782878,8.294412960925698,-0.3457955511540174
2024-12-04 22:07:03.286204200,4.0152041015625,-5.280158663496374,6.065601184934377,-0.9586778584063052
2024-12-04 22:07:03.296230100,4.025230224609375,-2.6122680724978444,5.205823845741152,-2.32266027251184
2024-12-04 22:07:03.306257200,4.035257080078125,-2.1341478714346884,4.274001553295553,-4.376760209241509
2024-12-04 22:07:03.316283100,4.045283203125,-2.513800099483132,3.436766300778091,-5.700453283056617
2024-12-04 22:07:03.326309000,4.05530908203125,-3.228161252003908,2.626827928248048,-7.121644023549556
2024-12-04 22:07:03.336336100,4.065336181640625,-2.7642992933958768,2.2512588778600096,-7.237278235420584
2024-12-04 22:07:03.346362000,4.075362060546875,-1.893940354433656,1.1320762769818304,-6.762180597048998
2024-12-04 22:07:03.356389400,4.085389404296875,-2.256254201929272,0.3748614866405725,-5.202856228107214
2024-12-04 22:07:03.366415400,4.095415283203125,-1.4547367440029977,0.0254418997704982,-3.645480655145645
2024-12-04 22:07:03.376441300,4.10544140625,-0.7367483408957719,-0.2339700839161872,-2.695916077521443
2024-12-04 22:07:03.386468000,4.115468017578125,0.8490379185140132,0.1713578526586294,-1.713854420918226
2024-12-04 22:07:03.396494000,4.125494140625,1.1629644594594837,-0.0464887794524431,-1.2214368144333363
2024-12-04 22:07:03.406521000,4.13552099609375,1.312244920344651,-0.0053302551120519,0.521580572605133
2024-12-04 22:07:03.416547300,4.14554736328125,1.0884840957537292,-0.4289584030091762,1.699072446849942
2024-12-04 22:07:03.426573300,4.1555732421875,0.3922156492844224,-0.2495253804445266,1.9622019897550345
2024-12-04 22:07:03.436600300,4.165600341796875,0.7398539056956768,-0.087181439846754,1.846512832826376
2024-12-04 22:07:03.446626300,4.175626220703125,1.2839499692305922,0.3765747202992439,1.482998669630289
2024-12-04 22:07:03.456653000,4.185653076171875,1.6655132915973665,0.0790957485467195,0.5258353074401617
2024-12-04 22:07:03.466679000,4.195678955078125,2.4816055105820296,-0.0489548773050308,0.7556652228116989
2024-12-04 22:07:03.476705000,4.205705078125,2.3327333382368085,-0.4572708897799253,0.7748124063521623
2024-12-04 22:07:03.486732300,4.215732177734375,1.1687976956576107,-0.2402414192706346,0.5510252782762051
2024-12-04 22:07:03.496758300,4.22575830078125,0.4867860303387045,-0.5939665943801403,0.3232271609932184
2024-12-04 22:07:03.506785300,4.235785400390625,-0.1827533991590142,-0.7243219900429249,0.3536357432603836
2024-12-04 22:07:03.516811000,4.24581103515625,-0.7156055996239185,-0.0544885460346937,0.8493506377249955
2024-12-04 22:07:03.526837000,4.2558369140625,-0.2298711241647601,-1.3416624457478523,-0.1266775839328766
2024-12-04 22:07:03.536864300,4.2658642578125,1.3194219723671674,-2.1317782196938992,-0.556297665721178
2024-12-04 22:07:03.546890200,4.27589013671875,1.7937632394134997,-1.768708293133974,-0.367971142604947
2024-12-04 22:07:03.556916200,4.285916259765625,1.4418003978013991,-1.8122808928787708,-0.6942875017851591
2024-12-04 22:07:03.566943200,4.295943115234375,1.307318569858372,-1.417387841078639,-0.4142962559282779
2024-12-04 22:07:03.576969200,4.30596923828125,1.3726701629519462,-0.931223449769616,0.5571791247308254
2024-12-04 22:07:03.586996000,4.315995849609375,0.4302694856077432,-1.9496984820127483,0.4019914856284856
2024-12-04 22:07:03.597022200,4.326022216796875,-0.6010609365552664,-2.55218565197885,0.8409738545238972
2024-12-04 22:07:03.607048200,4.336048095703125,-0.3228875537753105,-2.6847715831726786,1.8942595033854248
2024-12-04 22:07:03.617075200,4.3460751953125,-0.128799106131494,-3.04029591665864,1.8820564398944373
2024-12-04 22:07:03.627101200,4.35610107421875,0.6883081351146102,-3.066401833295822,2.181073288738728
2024-12-04 22:07:03.637128200,4.366128173828125,1.4940855885729192,-2.477373864361644,2.4101690446168185
2024-12-04 22:07:03.647154200,4.376154296875,1.4743138433933258,-3.160136932569742,1.90230603171885
2024-12-04 22:07:03.657180400,4.386180419921875,2.566769180865585,-4.516890564465522,1.5521189676076173
2024-12-04 22:07:03.667207200,4.396207275390625,2.705968684980273,-5.532268215215206,1.5614643035799265
2024-12-04 22:07:03.677233200,4.406233154296875,1.257819794934988,-5.313578702539205,1.8643109398454427
2024-12-04 22:07:03.687260200,4.41626025390625,0.5092711261302233,-5.108703195682168,1.996288383752108
2024-12-04 22:07:03.697286100,4.4262861328125,0.3937807066440582,-4.775987490853667,1.8915987597435715
2024-12-04 22:07:03.707312000,4.43631201171875,0.8906174447454511,-4.379279498586058,1.029039096355438
2024-12-04 22:07:03.717339400,4.44633935546875,1.409006381702423,-4.349046857407689,0.1319189917176962
2024-12-04 22:07:03.727365400,4.456365478515625,1.5387930375665426,-4.570889281156659,-0.1046171432942151
2024-12-04 22:07:03.737392000,4.46639208984375,0.5010961491115391,-4.6006893761366605,0.2381307107269764
2024-12-04 22:07:03.747418000,4.476418212890625,-1.2637051997117696,-4.271669018694758,1.1424369274765251
2024-12-04 22:07:03.757444000,4.486444091796875,-2.402510054296255,-3.4546091237217187,2.0573656605273483
2024-12-04 22:07:03.767471000,4.49647119140625,-2.0852197360061107,-2.880415735825896,3.034547143873572
2024-12-04 22:07:03.777497300,4.506497314453125,-1.3489688232384622,-3.145989164751768,3.546003797349333
2024-12-04 22:07:03.787523300,4.5165234375,-0.9068896573714912,-3.3255899450987574,3.1767259560599923
2024-12-04 22:07:03.797550000,4.526550048828125,0.1289022742450237,-2.791348043841124,0.9563725040733814
2024-12-04 22:07:03.807576000,4.536576171875,1.1102731721051036,-1.986459648177028,-2.047409791441261
2024-12-04 22:07:03.817603000,4.54660302734375,1.478060044184327,-1.732639200887084,-3.793224700243771
2024-12-04 22:07:03.827629000,4.556629150390625,1.488227364064008,-1.2082336339890956,-3.4462864087954164
2024-12-04 22:07:03.837655300,4.5666552734375,1.64173698695153,-1.3687947828233242,-2.114918562568724
2024-12-04 22:07:03.847682300,4.576682373046875,1.9506684960886835,-1.9768173750847573,-0.6680129505828023
2024-12-04 22:07:03.857708300,4.586708251953125,1.971979871925712,-2.7979724304169413,0.6697855132132768
2024-12-04 22:07:03.867735000,4.596735107421875,1.1223001483768225,-4.065809176975488,2.237694755148888
2024-12-04 22:07:03.877761000,4.606760986328125,-0.2350701541125774,-4.481847892656922,3.2221102814018723
2024-12-04 22:07:03.887787000,4.616787109375,0.6794242791742086,-5.109495222842693,2.6643203312963246
2024-12-04 22:07:03.897814300,4.626814208984375,2.096767112067342,-5.716494901797175,1.481293180886656
2024-12-04 22:07:03.907839200,4.636839111328125,2.347878884920478,-6.354774685156345,0.6184294199854136
2024-12-04 22:07:03.917866200,4.6468662109375,2.639395148876309,-6.850526989021897,0.1838832069065421
2024-12-04 22:07:03.927892200,4.656892333984375,2.001591750857234,-6.922336672213673,0.0431960945826023
2024-12-04 22:07:03.937918500,4.66691845703125,1.763486174571514,-6.689815033540129,-0.2005845316648483
2024-12-04 22:07:03.947945500,4.676945556640625,1.4929273584485052,3.5636072585791347,5.657136703899503
2024-12-04 22:07:03.957971500,4.686971435546875,0.0017781155884265,26.89249605369568,13.16727910977602
2024-12-04 22:07:03.967998200,4.696998291015625,0.0099970870124641,30.39628158851862,5.629125245901942
2024-12-04 22:07:03.978024200,4.707024169921875,0.8447808455914259,23.853805234146115,-2.336873360650986
2024-12-04 22:07:03.988050200,4.71705029296875,-0.5461351681470871,19.33741268233061,-5.629309370297193
2024-12-04 22:07:03.998077400,4.727077392578125,-1.047491867890954,13.374111011397838,-9.121262428507208
2024-12-04 22:07:04.008103400,4.737103515625,0.2661205414146185,7.536155383533239,-11.899897705769538
2024-12-04 22:07:04.018130200,4.747130126953125,2.50645616646111,2.5619611960619686,-7.031051898476481
2024-12-04 22:07:04.028156200,4.75715625,2.110707374614477,-0.4028215067118406,1.1847606962040067
2024-12-04 22:07:04.038182100,4.76718212890625,0.1950648914605379,-1.516083777630329,5.192784915947914
2024-12-04 22:07:04.048209400,4.77720947265625,-1.8611539371192447,-2.328351177629828,6.069695176249742
2024-12-04 22:07:04.058235400,4.7872353515625,-3.407604795962572,-2.5553929235875605,6.1311056305021046
2024-12-04 22:07:04.068262400,4.797262451171875,-4.539296457540988,-2.2936317464262244,5.171465649065375
2024-12-04 22:07:04.078288400,4.807288330078125,-5.2834617966949935,-1.81463242444098,3.3605352940127253
2024-12-04 22:07:04.088314400,4.817314453125,-5.078589212447405,-1.517596520280838,1.573652754023671
2024-12-04 22:07:04.098341000,4.827341064453125,-3.874880946928263,-0.7699012534350156,1.0168860094860197
2024-12-04 22:07:04.108367000,4.8373671875,-1.9880501322388648,0.5113683906704187,1.6449398746460675
2024-12-04 22:07:04.118393300,4.847393310546875,-0.5583166043281554,1.0916858144044876,1.6897085523076354
2024-12-04 22:07:04.128420400,4.85742041015625,0.3151473149120807,0.9312743031740188,1.0663631570994854
2024-12-04 22:07:04.138446300,4.8674462890625,0.9906441915094852,0.4482096314460039,0.2891644401326775
2024-12-04 22:07:04.148473300,4.877473388671875,1.4838392121076582,0.1656973426789045,-0.247240922769159
2024-12-04 22:07:04.158499300,4.887499267578125,1.590837113058567,0.0191840084195137,-0.552422285592556
2024-12-04 22:07:04.168525300,4.897525390625,1.4422306059122083,-0.3828197521686554,-0.8373682312473655
2024-12-04 22:07:04.178552300,4.90755224609375,1.2014824061632157,-0.8605097451210022,-0.8627887959688901
2024-12-04 22:07:04.188578300,4.917578369140625,0.8702432036280632,-1.1505775638341904,-0.7457013165496289
2024-12-04 22:07:04.198605300,4.927605224609375,0.427936658746004,-1.012715153542161,-0.5723739173837006
2024-12-04 22:07:04.208631300,4.93763134765625,-0.0215922568713314,-0.420657607653737,-0.2754648544736206
2024-12-04 22:07:04.218657300,4.9476572265625,-0.458662599866651,0.0783031368643045,0.0236005096875131
2024-12-04 22:07:04.228684500,4.9576845703125,-0.7951041568178683,0.3708417296051979,0.1772879733599722
2024-12-04 22:07:04.238710500,4.96771044921875,-0.9099427613317966,0.7196481530129909,0.2624031283266842
2024-12-04 22:07:04.248737300,4.9777373046875,-0.940005891162157,1.0733534543782473,0.2600156486682594
2024-12-04 22:07:04.258763300,4.98776318359375,-0.8708101898610592,1.3549170641183852,0.202881848821789
2024-12-04 22:07:04.268789200,4.997789306640625,-0.6315045901358127,1.4856044682145118,0.0053304012425243
2024-12-04 22:07:04.278816300,5.007816162109375,-0.3142284465014934,1.57841076220572,-0.2098966960199177
2024-12-04 22:07:04.288842200,5.01784228515625,-0.0365349744592793,1.831090222766996,-0.2366108076833188
2024-12-04 22:07:04.298869200,5.027869140625,0.0637152240633964,2.324857490295172,-0.2790238621294498
2024-12-04 22:07:04.308895200,5.037895263671875,0.2477694766879081,2.8283015177071094,-0.2242477313250303
2024-12-04 22:07:04.318921200,5.047921142578125,0.7261188103318214,3.596740881896019,0.1102951889306306
2024-12-04 22:07:04.328948200,5.0579482421875,1.0894482646107673,4.284093615981936,0.0781340639077127
2024-12-04 22:07:04.338974200,5.06797412109375,1.1018670166790483,4.747496724906563,-0.1729676259428262
2024-12-04 22:07:04.349001500,5.07800146484375,0.7198609189808368,5.1596887020319695,-0.1064377828501164
2024-12-04 22:07:04.359027500,5.08802734375,-0.0604571355829015,5.248866868653893,0.8124215676479041
2024-12-04 22:07:04.369053400,5.098053466796875,-1.1905728896141052,4.599498120525479,2.118105375911296
2024-12-04 22:07:04.379080200,5.108080078125,-2.3460966776788235,3.626162791213393,3.0093036892846223
2024-12-04 22:07:04.389106200,5.118106201171875,-3.2091794881582256,2.681843713027239,3.429406877925992
2024-12-04 22:07:04.399133200,5.12813330078125,-3.7726188423275935,1.8350906905800104,3.310588775321841
2024-12-04 22:07:04.409159400,5.138159423828125,-3.910463132441044,0.8951736467450857,2.723441797828674
2024-12-04 22:07:04.419185400,5.148185302734375,-3.4470927567422387,0.1568558645755052,2.0418363752231
2024-12-04 22:07:04.429212400,5.15821240234375,-2.701528072184324,-0.1429039115905761,1.4266855385169386
2024-12-04 22:07:04.439238400,5.16823828125,-2.172178034621477,-0.1145756427288055,0.7568468338117003
2024-12-04 22:07:04.449264400,5.178264404296875,-2.009856305855513,0.1110755256533622,-0.1441582955658435
2024-12-04 22:07:04.459291100,5.188291015625,-1.93404849293828,0.6023948155075312,-0.8872108511723578
2024-12-04 22:07:04.469317000,5.198317138671875,-1.9378893862754103,1.2565852847039698,-1.3805492257639764
2024-12-04 22:07:04.479344400,5.208344482421875,-2.1777672329306603,1.878949121528864,-1.828600451777876
2024-12-04 22:07:04.489370400,5.218370361328125,-2.644440741828084,2.274143786624074,-2.4549007512688634
2024-12-04 22:07:04.499396400,5.228396240234375,-3.094980862048268,2.4059832833647725,-3.302252908653021
2024-12-04 22:07:04.509423400,5.23842333984375,-3.2006758637070654,2.339014610463381,-4.506120164126157
2024-12-04 22:07:04.519449300,5.248449462890625,-2.299798452362418,2.154751099002361,-5.567935156401991
2024-12-04 22:07:04.529476400,5.258476318359375,-0.7805160978864878,1.912518798175454,-5.7922600446164605
2024-12-04 22:07:04.539502300,5.26850244140625,0.2320517561394721,1.6147358750402927,-5.049586405324936
2024-12-04 22:07:04.549528300,5.2785283203125,1.3308277480006216,1.2002069793999195,-3.878665141642093
2024-12-04 22:07:04.559555300,5.288555419921875,2.1336079193390907,0.8152408628523349,-2.7625834293887017
2024-12-04 22:07:04.569581300,5.298581298828125,2.1180717659026382,0.7322527830421924,-1.9267402157515283
2024-12-04 22:07:04.579608300,5.3086083984375,1.4635072026968,0.5834837788105011,-1.4827822504006325
2024-12-04 22:07:04.589634300,5.31863427734375,0.6699579471707343,0.4327122025847434,-1.0805965573742986
2024-12-04 22:07:04.599660300,5.328660400390625,0.050556467282772,0.3568050209462642,-0.7463216404050588
2024-12-04 22:07:04.609687300,5.338687255859375,-0.2290127537697553,0.2093967836737632,-0.4952291933069005
2024-12-04 22:07:04.619713300,5.34871337890625,-0.0979009867817163,0.4214350217670202,0.3111206166792661
2024-12-04 22:07:04.629740300,5.358740234375,0.4476556508250534,0.666924278563261,1.1332292464092373
2024-12-04 22:07:04.639766300,5.368766357421875,1.3796154520452022,0.5895037697523832,1.6241124829337
2024-12-04 22:07:04.649792500,5.37879248046875,2.075908448433876,0.2075479409366846,1.7750344274155794
2024-12-04 22:07:04.659819300,5.3888193359375,2.36700970184803,-0.1845616176247596,1.8005125675432383
2024-12-04 22:07:04.669845200,5.39884521484375,2.06296260375157,-0.2158534124672412,1.8309883698277167
2024-12-04 22:07:04.679872300,5.408872314453125,0.9142818134494124,0.0073556234598159,2.1466937570139764
2024-12-04 22:07:04.689898200,5.418898193359375,-1.092528110447526,0.2775321622669696,2.773884867864847
2024-12-04 22:07:04.699924200,5.42892431640625,-1.967569362007081,0.1784352436989545,3.429512676388025
2024-12-04 22:07:04.709951500,5.438951416015625,-1.2788640442684291,-0.1414402687788009,3.787915487919748
2024-12-04 22:07:04.719977500,5.4489775390625,-0.3926660234004259,-0.4742886600762605,3.738979023054242
2024-12-04 22:07:04.730004200,5.459004150390625,-0.0057908583611249,-0.7480927417308092,3.4373885243296622
2024-12-04 22:07:04.740030200,5.4690302734375,0.1279436583459377,-0.8029325854212045,3.0333786846160886
2024-12-04 22:07:04.750056200,5.47905615234375,0.4717527118578553,-0.6749602855026722,2.684741772556305
2024-12-04 22:07:04.760083200,5.489083251953125,0.7919111329302191,-0.3773948045104742,2.105315452443063
2024-12-04 22:07:04.770109400,5.499109375,0.5910238189265131,0.1134235500842332,1.5648656364560127
2024-12-04 22:07:04.780135400,5.509135498046875,0.472292225562036,0.5269307014614343,1.0528086789995432
2024-12-04 22:07:04.790162400,5.519162353515625,0.7220940848603844,0.8032593331575393,-0.2564709617987274
2024-12-04 22:07:04.800188400,5.5291884765625,0.6304641411721706,0.9892565365433692,-1.4732827467799186
2024-12-04 22:07:04.810215200,5.539215087890625,0.5471002137869596,1.16219668995738,-1.616508729931712
2024-12-04 22:07:04.820241200,5.5492412109375,0.8979764292061329,1.1422726768255234,-1.4891034162461756
2024-12-04 22:07:04.830267400,5.559267333984375,0.8407599195122718,1.0763923836827278,-1.121696921786666
2024-12-04 22:07:04.840294400,5.56929443359375,1.274932842299342,1.017875897306204,-0.6174944772228598
2024-12-04 22:07:04.850320400,5.5793203125,1.8186241244256496,0.7248124039083719,0.1160229189276695
2024-12-04 22:07:04.860347400,5.589347412109375,2.426144612383842,0.0075987845659255,0.7597744116961955
2024-12-04 22:07:04.870373400,5.599373291015625,3.348777928462624,-0.5771703578799963,1.3064286352813244
2024-12-04 22:07:04.880399000,5.609399169921875,4.24771823426485,-0.9845020354926586,1.8851529446050523
2024-12-04 22:07:04.890426400,5.61942626953125,4.599586967852711,-1.6160913813024758,2.2229276863887906
2024-12-04 22:07:04.900452400,5.629452392578125,4.261925623315572,-2.2741163140952585,2.449933484250307
2024-12-04 22:07:04.910480400,5.63948046875,3.5823154661804435,-2.789263638782501,2.6695740140408275
2024-12-04 22:07:04.920506000,5.649506103515625,3.1246868490040303,-3.202712922492623,2.7079785634979605
2024-12-04 22:07:04.930532000,5.659531982421875,3.1374019536703823,-3.538171788549423,2.658689631932974
2024-12-04 22:07:04.940559400,5.669559326171875,3.385076153290272,-3.751743227559328,2.746620428842306
2024-12-04 22:07:04.950585300,5.67958544921875,3.695446755319834,-3.885420461121201,2.9583710821658373
2024-12-04 22:07:04.960612400,5.6896123046875,4.075435083454847,-4.022396736228465,2.9781752683103084
2024-12-04 22:07:04.970638300,5.699638427734375,4.456723972794413,-4.109620846173167,2.858490904265642
2024-12-04 22:07:04.980664300,5.709664306640625,4.723267708057165,-4.135270835736394,2.75548996399641
2024-12-04 22:07:04.990691300,5.71969140625,4.630628002804517,-4.175732025462389,2.670662978321314
2024-12-04 22:07:05.000717300,5.72971728515625,4.050124701109528,-4.214083675688505,2.5605402233481405
2024-12-04 22:07:05.010744300,5.739744384765625,3.192966604503989,-4.232418373802304,2.337585162182152
2024-12-04 22:07:05.020770300,5.749770263671875,2.543143098345398,-4.304344376850128,1.7488970927268266
2024-12-04 22:07:05.030796300,5.75979638671875,2.209265364000201,-4.32873530626297,1.1154929525800048
2024-12-04 22:07:05.040823300,5.7698232421875,2.065672885623574,-4.220054566791654,0.4524792715892195
2024-12-04 22:07:05.050849300,5.779849365234375,1.8461586125612257,-3.8926889908194537,-0.0707471685267984
2024-12-04 22:07:05.060876300,5.789876220703125,1.7586621154159303,-3.3634500124156474,-0.2083471284903585
2024-12-04 22:07:05.070902300,5.79990234375,1.7094751829206942,-2.796478976988792,-0.0120638011507689
2024-12-04 22:07:05.080928300,5.80992822265625,0.8557353703260421,-2.4937545057982207,-0.1669010193802416
2024-12-04 22:07:05.090955300,5.819955322265625,-0.297391877990961,-2.4562135874330995,-1.4293652791202067
2024-12-04 22:07:05.100981200,5.829981201171875,-5.312309120994806,-1.369973763474822,-3.463817681571841
2024-12-04 22:07:05.111007200,5.84000732421875,-14.636051685655117,2.55518892544806,-6.730655577972531
2024-12-04 22:07:05.121034500,5.850034423828125,-14.683101021599768,9.875048413443563,-4.353841982729732
2024-12-04 22:07:05.131060500,5.860060546875,-3.238292769917845,15.93037721068859,2.6018606602519747
2024-12-04 22:07:05.141087200,5.870087158203125,4.857617434053123,17.638693871223925,7.873138098156452
2024-12-04 22:07:05.151113200,5.88011328125,3.610044892366232,14.652675488197804,7.41475953939557
2024-12-04 22:07:05.161139200,5.89013916015625,-0.8804068702459334,7.822434915879368,1.752402762760222
2024-12-04 22:07:05.171166500,5.90016650390625,-1.9522201094448568,1.5133248343110084,-0.93969287969023
2024-12-04 22:07:05.181192400,5.9101923828125,0.3562473870635032,-2.4791268455088136,-0.8282980589546263
2024-12-04 22:07:05.191219500,5.920219482421875,2.8605566046237945,-4.705269694551825,0.3209764594569802
2024-12-04 22:07:05.201245200,5.9302451171875,2.1934096232205627,-5.501673170465231,1.6349758222535251
2024-12-04 22:07:05.211271200,5.940271240234375,-0.5645768337666988,-5.053392811870575,3.213956785562634
2024-12-04 22:07:05.221298200,5.950298095703125,-1.1992834348142147,-3.319395182111859,4.643157229509949
2024-12-04 22:07:05.231324400,5.960324462890625,0.1182633913308382,-0.5528402187436818,4.972842188340425
2024-12-04 22:07:05.241351400,5.970351318359375,0.7511018604189157,2.133888343715668,3.945300637066364
2024-12-04 22:07:05.251377400,5.98037744140625,1.1383303689405322,3.881908653607964,2.019491418554633
2024-12-04 22:07:05.261403400,5.9904033203125,1.808740443792939,4.47577237213552,0.1100787697009742
2024-12-04 22:07:05.271430100,6.00043017578125,1.6936588973686098,4.174751197731495,-0.8332950635243207
2024-12-04 22:07:05.281456000,6.0104560546875,1.0616580481484532,3.273481572198868,-1.040183079247549
2024-12-04 22:07:05.291483400,6.0204833984375,0.568604774108529,2.058218477964401,-0.9733980923499912
2024-12-04 22:07:05.301509400,6.03050927734375,0.5180512294352054,0.8174141152381896,-0.8785003790374845
2024-12-04 22:07:05.311535400,6.040535400390625,0.2956029487475752,-0.1213975977033376,-0.6458189466923475
2024-12-04 22:07:05.321562400,6.050562255859375,0.3869114053964614,-0.6817436620324849,-0.365703161140345
2024-12-04 22:07:05.331588400,6.06058837890625,0.6978741281002759,-0.8211363506317139,-0.1669368944112211
2024-12-04 22:07:05.341615000,6.070614990234375,0.6720651485830546,-0.4525251565575599,-0.0613020619744434
2024-12-04 22:07:05.351641300,6.080641357421875,0.6397153691202402,0.0771399383038282,-0.1391132688696496
2024-12-04 22:07:05.361667300,6.090667236328125,0.7298822545185685,0.5527706606388092,-0.3025823227735236
2024-12-04 22:07:05.371694300,6.1006943359375,0.6519162406541407,0.8603747205644845,-0.3176969263296574
2024-12-04 22:07:05.381720300,6.11072021484375,0.5211524103209376,0.7998626764565706,0.0031753266882878
2024-12-04 22:07:05.391747300,6.120747314453125,0.2565513335585594,0.4834890346199273,0.2898128210388124
2024-12-04 22:07:05.401773300,6.130773193359375,-0.2997333265505731,0.2237970649480819,-0.4750539453603327
2024-12-04 22:07:05.411799600,6.140799560546875,-1.0201799364648758,-0.0539028551012277,-0.7878296357702463
2024-12-04 22:07:05.421826300,6.150826416015625,-1.2958072880238294,-0.318638079637289,-0.7705446659050882
2024-12-04 22:07:05.431852300,6.160852294921875,-0.9639331485860048,-0.5376958411037922,-0.4700992090297862
2024-12-04 22:07:05.441879300,6.17087939453125,-0.2254452705465257,-0.6880944923639297,0.0359560603264719
2024-12-04 22:07:05.451905300,6.1809052734375,0.4744821368217468,-0.8612859901905059,0.6555454640019684
2024-12-04 22:07:05.461931300,6.19093115234375,0.6634073564834893,-1.072088549008965,1.0173341916449368
2024-12-04 22:07:05.471958300,6.200958251953125,0.5059234231375157,-1.3774398615717889,0.9779955031428486
2024-12-04 22:07:05.481984300,6.210984375,0.3983832320034504,-1.7012725872427223,0.8625009920034558
2024-12-04 22:07:05.492011300,6.22101123046875,0.3848696704357862,-1.882410660159588,0.826446951195225
2024-12-04 22:07:05.502037200,6.231037353515625,0.2752314841091632,-1.975091866466403,0.7880422556076199
2024-12-04 22:07:05.512063200,6.241063232421875,0.2356488307833671,-1.9750328297555448,0.7770332972720265
2024-12-04 22:07:05.522090500,6.251090576171875,0.4064027261994778,-1.8367618386626243,0.7757821281671523
2024-12-04 22:07:05.532116500,6.261116455078125,0.6429448525607585,-1.5769897894918918,0.6695473205432295
2024-12-04 22:07:05.542142500,6.271142578125,0.6791098063975572,-1.3479384572774171,0.4448640473451465
2024-12-04 22:07:05.552169200,6.281169189453125,0.5212018024206161,-1.1836433826118706,0.2405893559254705
2024-12-04 22:07:05.562195200,6.2911953125,0.3931875630564987,-1.0349901137143374,-0.0216583626437932
2024-12-04 22:07:05.572222200,6.30122216796875,0.4268307433307171,-0.8926765692323446,-0.2648698107011616
2024-12-04 22:07:05.582248200,6.311248291015625,0.5234954663157463,-0.8543769414544105,-0.4856339376941323
2024-12-04 22:07:05.592274400,6.3212744140625,0.6646592562407255,-0.9519143556207418,-0.57500002810359
2024-12-04 22:07:05.602301400,6.331301513671875,0.7238811874728649,-1.0510416693270206,-0.487180582614243
2024-12-04 22:07:05.612327400,6.341327392578125,0.7200088030189276,-1.1043535727977751,-0.3453412315152585
2024-12-04 22:07:05.622354200,6.351354248046875,0.6646884092699736,-1.007173886027932,-0.2416083237096667
2024-12-04 22:07:05.632380200,6.361380126953125,0.5897732343435287,-0.8340724045723676,-0.1665942915186286
2024-12-04 22:07:05.642406100,6.37140625,0.2879209063449874,-0.7817804917991161,-0.1320754974536597
2024-12-04 22:07:05.652433400,6.381433349609375,-0.1390863991290331,-0.8205430609136819,-0.0518812861457467
2024-12-04 22:07:05.662459400,6.39145947265625,-0.5130207975199446,-0.8364332884848117,0.1467991654634475
2024-12-04 22:07:05.672486400,6.401486328125,-0.8258446744531392,-0.926447321408987,0.1244561084911227
2024-12-04 22:07:05.682512400,6.411512451171875,-1.0480454101204872,-0.9474784189999104,-0.1117439264342188
2024-12-04 22:07:05.692538400,6.421538330078125,-1.1691168446093796,-0.6257838744014501,-0.2629077168479561
2024-12-04 22:07:05.702565400,6.4315654296875,-1.0947633221536874,-0.264347686523199,-0.3852377730958163
2024-12-04 22:07:05.712591400,6.44159130859375,-0.8667115223705768,0.0315706117838621,-0.6201179575942456
2024-12-04 22:07:05.722618400,6.451618408203125,-0.7463339153647423,0.2943897735655307,-1.0303342507325113
2024-12-04 22:07:05.732644400,6.461644287109375,-0.6626157677143811,0.5486030195653439,-1.4149765421532094
2024-12-04 22:07:05.742670300,6.47167041015625,-0.8078805632174014,0.7722995467483997,-1.6454393486008048
2024-12-04 22:07:05.752697300,6.481697265625,-0.8912859916567802,0.7723422168463469,-1.8127001412041484
2024-12-04 22:07:05.762723300,6.491723388671875,-0.8963993891477584,0.6388181280195713,-1.736065375943482
2024-12-04 22:07:05.772750300,6.501750244140625,-1.0258359163999555,0.5372165331542491,-1.604290322741121
2024-12-04 22:07:05.782776300,6.5117763671875,-1.295024613213539,0.6152613113433122,-1.4323269054047765
2024-12-04 22:07:05.792802300,6.52180224609375,-1.5119856946617365,0.6848445506572723,-1.3174717150822282
2024-12-04 22:07:05.802829300,6.531829345703125,-1.6588953347623348,0.7231587914824485,-1.3884011083081365
2024-12-04 22:07:05.812855300,6.541855224609375,-1.7878209898829458,0.6218547182589769,-1.6910380473457276
2024-12-04 22:07:05.822882300,6.55188232421875,-1.8922791432231665,0.3605500526934861,-2.025194014110416
2024-12-04 22:07:05.832908300,6.561908203125,-2.0252403374701737,0.0882417625546455,-2.1977254405930635
2024-12-04 22:07:05.842934300,6.571934326171875,-2.014692639970779,0.0351116453915834,-2.212715212193132
2024-12-04 22:07:05.852961300,6.581961181640625,-1.7574743669360875,0.0775777451992034,-2.368508708234131
2024-12-04 22:07:05.862987300,6.5919873046875,-1.4028601340323683,0.2700549582540988,-2.471660747411847
2024-12-04 22:07:05.873014300,6.60201416015625,-1.0135013354837894,0.5936082824617624,-2.187661581087857
2024-12-04 22:07:05.883040500,6.61204052734375,-0.5672013370513915,0.9507423892319202,-1.8296281873904168
2024-12-04 22:07:05.893066500,6.62206640625,-0.3000631430268287,1.2881681714475155,-1.4324613454394042
2024-12-04 22:07:05.903093200,6.63209326171875,-0.1545475876331329,1.5640321082413196,-1.013793742559105
2024-12-04 22:07:05.913118700,6.64211865234375,-0.1295925945967435,1.784741728568077,-0.6136435008831321
2024-12-04 22:07:05.923145700,6.652145751953125,-0.0688929189622402,2.14085935177207,-0.193147367401421
2024-12-04 22:07:05.933171700,6.662171630859375,-0.1000455975949764,2.735840676152706,0.1501728796802461
2024-12-04 22:07:05.943197700,6.67219775390625,-0.3396919735819101,3.458535941776633,0.5330060758523643
2024-12-04 22:07:05.953224700,6.682224609375,-0.530756397229433,4.173580400386452,0.8121287221811712
2024-12-04 22:07:05.963250700,6.692250732421875,-0.7439847218900919,4.792347089502215,0.9445561018124222
2024-12-04 22:07:05.973277700,6.702277587890625,-1.1699392669081687,5.497724140578508,1.422049549279362
2024-12-04 22:07:05.983303700,6.7123037109375,-1.7716408394545315,6.10371610379517,1.9561543801538648
2024-12-04 22:07:05.993329700,6.72232958984375,-2.53357389048934,6.113709674543142,2.185322178354859
2024-12-04 22:07:06.003356700,6.732356689453125,-3.403167105776072,5.408717238870263,2.2560082643441857
2024-12-04 22:07:06.013382700,6.742382568359375,-4.191546849709749,4.474511558419466,2.101807590452581
2024-12-04 22:07:06.023408600,6.75240869140625,-4.624690429449081,3.4377865837365387,1.6591199372984469
2024-12-04 22:07:06.033436000,6.762435791015625,-4.634905533993244,2.44522866756022,1.1644012142643332
2024-12-04 22:07:06.043462000,6.7724619140625,-4.3095805239379406,1.6368506762146948,0.52989934200868
2024-12-04 22:07:06.053488600,6.782488525390625,-3.707310796114802,1.038629346999526,-0.3163412008717656
2024-12-04 22:07:06.063514600,6.7925146484375,-3.0719489460289475,0.6682382837712765,-1.283508362942934
2024-12-04 22:07:06.073540600,6.80254052734375,-2.4282851315438747,0.9073024759560824,-1.5026495649091898
2024-12-04 22:07:06.083567600,6.812567626953125,-2.180719652995467,1.6187117929339407,-1.0158632423095404
2024-12-04 22:07:06.093593900,6.82259375,-1.965479403990507,2.15124747479558,-1.044815634419024
2024-12-04 22:07:06.103620900,6.832620849609375,-1.8056601595647632,2.556920863807201,-1.3877747931033373
2024-12-04 22:07:06.113646800,6.842646728515625,-2.150857014173269,2.955878096306324,-1.8829115954190487
2024-12-04 22:07:06.123672800,6.8526728515625,-1.6807504620872438,3.0800451587229967,-2.437302696866542
2024-12-04 22:07:06.133699600,6.862699462890625,-0.0557796087585389,2.71802327991128,-2.6492022571414706
2024-12-04 22:07:06.143725600,6.8727255859375,1.9350557702846825,2.0017431420266627,-2.4840792072191835
2024-12-04 22:07:06.153752800,6.8827529296875,3.4328649094253776,1.078306692871451,-2.012327956666052
2024-12-04 22:07:06.163778800,6.89277880859375,4.274275986322761,0.3102536976516246,-1.5485066223293542
2024-12-04 22:07:06.173804800,6.9028046875,4.371182409109175,-0.22764263446033,-1.153215218861401
2024-12-04 22:07:06.183831800,6.912831787109375,3.902462781336904,-0.511886277064681,-1.1450240944255143
2024-12-04 22:07:06.193857800,6.92285791015625,2.798794268193841,-0.6054968731760978,-0.9217584329403936
2024-12-04 22:07:06.203884800,6.932884765625,1.1330699641942976,-0.6220294903039932,-0.2402295096371322
2024-12-04 22:07:06.213910800,6.942910888671875,-0.6228288239881395,-0.5082411985605955,0.4735615148454904
2024-12-04 22:07:06.223936800,6.952936767578125,-1.999917680165172,-0.4071165735572576,1.1339837180383503
2024-12-04 22:07:06.233963800,6.9629638671875,-2.6921616934239863,-0.3510720302522182,1.8783160843223328
2024-12-04 22:07:06.243989800,6.97298974609375,-2.522407476569712,-0.4390151021212339,2.632015560019016
2024-12-04 22:07:06.254016500,6.9830166015625,-1.7242846295177936,-0.601863485109806,3.148485073220729
2024-12-04 22:07:06.264042500,6.99304248046875,-0.9585612462893128,-0.3914163156002759,3.661558221982419
2024-12-04 22:07:06.274068700,7.00306884765625,0.0449210917443037,-0.1662660824775695,3.994740667539834
2024-12-04 22:07:06.284095700,7.013095703125,1.5071701110735534,-0.1950672295480966,4.234850861646235
2024-12-04 22:07:06.294121700,7.023121826171875,2.808682040479779,-0.246592834123969,4.530726782116294
2024-12-04 22:07:06.304148700,7.033148681640625,3.4709336510568853,-0.2771568992137909,4.5068087309122085
2024-12-04 22:07:06.314174700,7.0431748046875,2.8942256499916312,-0.2711024214804172,3.7145880936414
2024-12-04 22:07:06.324200700,7.05320068359375,0.9888713366180658,-0.1834066023707389,2.356244562205672
2024-12-04 22:07:06.334227700,7.063227783203125,-1.6866171621635555,0.0884621273070573,1.082951742198318
2024-12-04 22:07:06.344253700,7.073253662109375,-3.396339890104532,0.3862590789675712,0.3025736645430326
2024-12-04 22:07:06.354280700,7.08328076171875,-2.7160706845387814,0.6812433112949132,-0.2029581289283931
2024-12-04 22:07:06.364306700,7.093306640625,-1.1786477662816643,0.8391121523052454,-0.4430032949745655
2024-12-04 22:07:06.374332700,7.103332763671875,-0.2316381338372826,0.8919885869681835,-0.1756239856705069
2024-12-04 22:07:06.384360000,7.11335986328125,0.7694488334923982,0.7414508194983005,0.3513084693565964
2024-12-04 22:07:06.394386000,7.123385986328125,1.9119769463837144,0.2979366523921489,0.6527095829889178
2024-12-04 22:07:06.404412700,7.13341259765625,2.3643621099486944,-0.1427712251216173,0.9509846735551952
2024-12-04 22:07:06.414438700,7.143438720703125,2.5853677906125783,-0.5107154797196388,1.4153326621145008
2024-12-04 22:07:06.424464600,7.153464599609375,2.9233704959332942,-0.6682528968185186,1.744120087583363
2024-12-04 22:07:06.434491600,7.16349169921875,3.3576118077814576,-0.816505183699727,2.0032357186719776
2024-12-04 22:07:06.444518000,7.173517822265625,3.785624454373121,-1.0970984871029854,2.1301322060525414
2024-12-04 22:07:06.454545000,7.183544921875,4.342176971638202,-1.438900584706664,2.111964096677303
2024-12-04 22:07:06.464571000,7.19357080078125,4.876532854664325,-1.7056646847218273,2.1758201905161143
2024-12-04 22:07:06.474596900,7.203596923828125,5.332925208044052,-1.9266934540003533,2.319524312573672
2024-12-04 22:07:06.484623600,7.21362353515625,5.492951519349217,-2.0690420697957275,2.280941483940184
2024-12-04 22:07:06.494649600,7.223649658203125,5.424413989695906,-2.2805805416733027,1.9045032495021816
2024-12-04 22:07:06.504676900,7.2336767578125,5.27600914260149,-2.551098441264033,1.2676980687402188
2024-12-04 22:07:06.514702800,7.243702880859375,5.124689284843206,-2.851771240621805,0.6556875758863985
2024-12-04 22:07:06.524728800,7.253728759765625,5.123313320314884,-3.120481214007735,0.4360517222709953
2024-12-04 22:07:06.534755600,7.263755615234375,5.101075769543647,-3.451851933968067,0.4109225417114794
2024-12-04 22:07:06.544781600,7.273781494140625,4.907196288475394,-3.841939631313085,0.6927940483570099
2024-12-04 22:07:06.554807600,7.2838076171875,4.53688881187737,-4.31582906293869,1.1917287816509603
2024-12-04 22:07:06.564834800,7.293834716796875,4.300453214630484,-4.765732638821006,1.684572212332487
2024-12-04 22:07:06.574860800,7.30386083984375,4.196198474907875,-5.207202732878923,1.999881439808011
2024-12-04 22:07:06.584887800,7.3138876953125,4.037832205769419,-5.441214317849278,2.122596842111647
2024-12-04 22:07:06.594913800,7.323913818359375,3.628789632585645,-5.413097061389684,2.195455157573521
2024-12-04 22:07:06.604939800,7.333939697265625,3.099700291785598,-5.277530068558455,2.061696237077564
2024-12-04 22:07:06.614966500,7.343966552734375,2.5763971331715583,-4.954841836747526,1.933175071104616
2024-12-04 22:07:06.624992800,7.35399267578125,1.460750597465038,-4.472149505463242,1.925221335621178
2024-12-04 22:07:06.635019800,7.364019775390625,-0.6069324589371681,-3.9290819081932304,1.4321407351829112
2024-12-04 22:07:06.645045800,7.374045654296875,-2.719754633748531,-3.4974113236159083,0.1037849302537739
2024-12-04 22:07:06.655071700,7.38407177734375,-7.052783837813139,-2.4769419026851653,-1.0038444493442773
2024-12-04 22:07:06.665098800,7.3940986328125,-10.10251043063998,0.2693079392790794,-1.05987832512483
2024-12-04 22:07:06.675124700,7.404124755859375,-6.211138952159882,4.825381344097853,1.7250557600207626
2024-12-04 22:07:06.685151700,7.41415185546875,1.1311758210107683,10.489217253375053,5.9338511200428
2024-12-04 22:07:06.695177700,7.424177734375,4.117672342942655,17.766272787910697,8.315605971080064
2024-12-04 22:07:06.705203700,7.43420361328125,1.751425149899721,24.187997441267967,5.838388758584856
2024-12-04 22:07:06.715230700,7.444230712890625,-0.4700064527124166,21.488060437667368,-1.0359214032150803
2024-12-04 22:07:06.725256700,7.454256591796875,-1.632521707099676,11.137730261456966,-3.962229560035467
2024-12-04 22:07:06.735284000,7.464283935546875,-0.971893606071174,2.1881226227283475,-2.351921146048605
2024-12-04 22:07:06.745310000,7.47431005859375,-1.394616037300229,-1.8962772729486224,-0.4257530310966074
2024-12-04 22:07:06.755335700,7.484335693359375,-1.913676736038923,-4.4184915650337935,0.6621678778164088
2024-12-04 22:07:06.765362700,7.49436279296875,-0.7128507479578257,-6.404964657214284,1.26660954285115
2024-12-04 22:07:06.775388700,7.504388671875,0.3065980977535247,-7.146003388780355,2.100658858808875
2024-12-04 22:07:06.785415700,7.514415771484375,1.1236541933342814,-6.527766861018538,3.194713448171317
2024-12-04 22:07:06.795441700,7.524441650390625,2.4136110017642376,-4.44413980103135,3.749328567633033
2024-12-04 22:07:06.805468000,7.534468017578125,2.923243946944177,-1.2863935629904268,3.0409380139544604
2024-12-04 22:07:06.815494700,7.54449462890625,1.812877397467196,1.470924785476923,1.8333399013899263
2024-12-04 22:07:06.825520600,7.554520751953125,0.6274117678642273,3.1613819641947742,0.0240440156713128
2024-12-04 22:07:06.835547600,7.564547607421875,1.0322682875350118,3.844554197725653,-1.42416508012861
2024-12-04 22:07:06.845573600,7.57457373046875,1.5968489206939935,3.876231777015328,-2.075009892158956
2024-12-04 22:07:06.855599600,7.584599609375,1.4644880304276942,3.371581880944967,-2.17206960581094
2024-12-04 22:07:06.865627000,7.594626953125,1.403681971809268,2.197543946546316,-1.911432464243472
2024-12-04 22:07:06.875652900,7.60465283203125,1.1057390358068049,0.9228133488208056,-1.87865262280032
2024-12-04 22:07:06.885679600,7.6146796875,0.2441414954490959,0.1114437744438648,-1.7699384194508194
2024-12-04 22:07:06.895705600,7.62470556640625,-0.4348899850152433,-0.422476055252552,-1.938754186411202
2024-12-04 22:07:06.905731600,7.634731689453125,-0.6334573316387831,-0.8421592649161815,-1.4701847807645796
2024-12-04 22:07:06.915759600,7.644759521484375,-0.6208528477400541,-0.7048258469343185,-0.8069374371483922
2024-12-04 22:07:06.925785600,7.65478564453125,-0.7410743874013423,-0.0954682066768407,-1.1954662876788529
2024-12-04 22:07:06.935812400,7.664812255859375,-0.6468212556026876,0.0272597628474235,-1.676800993809104
2024-12-04 22:07:06.945838300,7.67483837890625,-0.7394597918115556,-0.1106371342360973,-2.03904849807024
2024-12-04 22:07:06.955864300,7.6848642578125,-1.054271152767539,-0.274970787346363,-2.393041238074749
2024-12-04 22:07:06.965891600,7.6948916015625,-1.4912475886680183,-0.6139280169129371,-2.1543311200246213
2024-12-04 22:07:06.975917600,7.70491748046875,-1.820253917584568,-0.92920217307508,-1.5362629345670342
2024-12-04 22:07:06.985943600,7.714943603515625,-1.806979279339313,-1.0635691424667837,-0.937560105445236
2024-12-04 22:07:06.995970600,7.724970458984375,-1.2820879747509957,-1.2728379158467054,-0.2168609090093523
2024-12-04 22:07:07.005996500,7.73499658203125,-0.8199895186841487,-1.5309434931099417,0.35579642842561
2024-12-04 22:07:07.016023300,7.745023193359375,-0.3546931433588266,-1.8000731532126664,0.7855478084433823
2024-12-04 22:07:07.026049300,7.75504931640625,0.2651556419052183,-1.984019269287586,1.122427574148774
2024-12-04 22:07:07.036076500,7.76507666015625,1.0360803931690752,-2.106552008500695,1.364762750828266
2024-12-04 22:07:07.046102500,7.7751025390625,1.3570932391136885,-2.1639175712764263,1.4102379693239926
2024-12-04 22:07:07.056128500,7.78512841796875,1.0420159206978976,-2.175385306230188,1.25245417624861
2024-12-04 22:07:07.066155500,7.795155517578125,0.724825263389945,-2.015141552782058,0.9588619828015564
2024-12-04 22:07:07.076181500,7.805181396484375,0.6851350580364465,-1.729275861933827,0.3959735405132174
2024-12-04 22:07:07.086207500,7.81520751953125,0.9762244748823344,-1.4075240341901778,-0.367179553835839
2024-12-04 22:07:07.096234500,7.825234375,1.2028864277422426,-1.0587047513008117,-1.1219257621064782
2024-12-04 22:07:07.106260500,7.835260498046875,1.2226700094901024,-0.6994546752899885,-1.586736838132888
2024-12-04 22:07:07.116287500,7.84528759765625,1.166732579821348,-0.2947106760829687,-1.88881263615638
2024-12-04 22:07:07.126313500,7.8553134765625,0.893255830425024,0.120615507414937,-2.1357447852373124
2024-12-04 22:07:07.136339500,7.86533935546875,0.5914823763489723,0.3606383154988288,-1.9913070882081985
2024-12-04 22:07:07.146366700,7.87536669921875,0.1721568940818309,0.477892822048068,-1.5823193139515817
2024-12-04 22:07:07.156392400,7.885392333984375,-0.5278554150909185,0.5577408502668142,-1.0988147895015776
2024-12-04 22:07:07.166419500,7.89541943359375,-0.8966389700572938,0.6120411802530288,-0.4888811029218137
2024-12-04 22:07:07.176445400,7.905445556640625,-1.0298819769203662,0.6420125401467085,0.1770616172581911
2024-12-04 22:07:07.186472400,7.915472412109375,-0.8979927227538078,0.5604927793234586,0.7108269870452583
2024-12-04 22:07:07.196498400,7.92549853515625,-0.610578706485033,0.3346884662061929,0.8046104555055499
2024-12-04 22:07:07.206524400,7.9355244140625,-0.3152387195225805,0.0879717134416103,0.7055646826028823
2024-12-04 22:07:07.216551400,7.945551513671875,0.0514893642187118,-0.0476052162617444,0.6876432414650917
2024-12-04 22:07:07.226577400,7.955577392578125,0.5880436340719462,-0.0284685541152954,0.5507442693777382
2024-12-04 22:07:07.236603400,7.965603271484375,1.1097393574893477,-0.0931798034787178,0.075182082234323
2024-12-04 22:07:07.246630400,7.97563037109375,1.397257491719723,-0.2154687970638275,-0.2772397551916539
2024-12-04 22:07:07.256656400,7.985656494140625,1.3127280276864766,-0.4991694188326597,-0.5161752064302564
2024-12-04 22:07:07.266683600,7.99568359375,1.2320125689834356,-0.6568032820433378,-0.746661686014384
2024-12-04 22:07:07.276709600,8.005709716796876,1.1436153236061335,-0.8475760292679071,-0.9517651564083992
2024-12-04 22:07:07.286735600,8.015735595703125,0.8999836773753166,-1.1329822859108447,-0.7607055550664663
2024-12-04 22:07:07.296762400,8.025762451171875,0.527806388317421,-1.5555021803051232,-0.229505797983706
2024-12-04 22:07:07.306788400,8.035788330078125,0.1916962918102741,-1.8712047910124063,0.2174837901480495
2024-12-04 22:07:07.316815400,8.0458154296875,-0.05700962547753,-1.7858873914718627,0.5098857508972287
2024-12-04 22:07:07.326841600,8.055841552734375,-0.398341182960011,-1.0963929691821337,0.8182870986804366
2024-12-04 22:07:07.336867600,8.06586767578125,-1.0509288566023112,-0.147507021471858,0.7651110965490341
2024-12-04 22:07:07.346894600,8.07589453125,-1.8249357917904847,0.7379957106083631,0.3629240883484482
2024-12-04 22:07:07.356920600,8.085920654296874,-2.516946580815316,1.3341186062395571,-0.1855414224423468
2024-12-04 22:07:07.366947300,8.095947265625,-3.074348992908001,1.5621394263625143,-0.970499667494744
2024-12-04 22:07:07.376973300,8.105973388671876,-3.349248468583822,1.567343424746394,-1.7945976444110274
2024-12-04 22:07:07.386999300,8.115999267578125,-3.361118939119577,1.6032622948676347,-2.397260901596397
2024-12-04 22:07:07.397026600,8.126026611328125,-3.142968355625868,1.612553270304203,-2.758776730582118
2024-12-04 22:07:07.407052500,8.136052490234375,-2.726991014742851,1.6114456013232468,-2.943281649583578
2024-12-04 22:07:07.417079600,8.14607958984375,-2.267341705393791,1.7244821979165077,-3.0631483844578264
2024-12-04 22:07:07.427105500,8.15610546875,-1.9348609783649444,2.209476960924268,-2.888593197062612
2024-12-04 22:07:07.437131500,8.166131591796875,-1.6879191846728323,2.8530127651154995,-2.505488198211789
2024-12-04 22:07:07.447158500,8.176158447265625,-1.4141525124192238,3.497811721110344,-2.109546368011087
2024-12-04 22:07:07.457184500,8.1861845703125,-1.1185972022056578,4.06940574016273,-1.661298158120364
2024-12-04 22:07:07.467211500,8.19621142578125,-0.915141499018669,4.505360285669565,-1.2344069167740643
2024-12-04 22:07:07.477237500,8.206237548828126,-0.7402689162373542,4.714826042926311,-0.783569128781557
2024-12-04 22:07:07.487263500,8.216263427734376,-0.358168710514903,4.8562440998733045,-0.1412543908178806
2024-12-04 22:07:07.497290500,8.22629052734375,0.1010228999282233,5.202803621137142,0.8268918454185128
2024-12-04 22:07:07.507316500,8.23631640625,0.3335924876630306,5.761622329768538,2.001765792249888
2024-12-04 22:07:07.517343500,8.246343505859375,0.3784685712218284,6.076832188522816,3.3656863931655883
2024-12-04 22:07:07.527369500,8.256369384765625,0.2121189386466518,5.917426639464497,4.7248687135130165
2024-12-04 22:07:07.537395500,8.2663955078125,-0.3005670008957385,4.985983993986249,5.637351806977391
2024-12-04 22:07:07.547422500,8.27642236328125,-1.0225251844167709,3.5594507234215733,5.76173046631813
2024-12-04 22:07:07.557448400,8.286448486328124,-1.6005056896358727,1.95840552008152,5.07046728079021
2024-12-04 22:07:07.567475500,8.296475341796874,-1.7924357902020216,0.6361673212498427,3.99813586293608
2024-12-04 22:07:07.577501400,8.30650146484375,-1.5510685817718506,0.0146481185555458,3.150755356240272
2024-12-04 22:07:07.587527400,8.31652734375,-1.2886673531413078,-0.1989823571652174,2.2629762036606667
2024-12-04 22:07:07.597554400,8.326554443359376,-1.1468466336775571,-0.2389730067700147,1.1596499280840158
2024-12-04 22:07:07.607580400,8.336580322265625,-1.294471070984006,-0.0964303297072649,-0.0448299063295125
2024-12-04 22:07:07.617607700,8.346607666015625,-1.557038449961692,0.3858762171298265,-1.1139100673027336
2024-12-04 22:07:07.627633700,8.356633544921875,-1.7915134146600962,1.103926871818304,-2.086865603516996
2024-12-04 22:07:07.637659600,8.36665966796875,-1.6152755348749457,1.850490504285693,-2.8313001150012016
2024-12-04 22:07:07.647686400,8.376686279296875,-1.1388888796061276,2.312264550703764,-3.5816534951403733
2024-12-04 22:07:07.657712400,8.38671240234375,-1.541112420424819,2.388378653091192,-4.066277963531017
2024-12-04 22:07:07.667739400,8.396739501953125,-1.7879289803020657,1.880071403557062,-3.335644013862312
2024-12-04 22:07:07.677765400,8.406765380859374,-1.3854185853660106,1.0675661031484602,-2.1272642494007945
2024-12-04 22:07:07.687791600,8.41679150390625,-0.6852046161413192,0.3008767974972725,-1.059240319482237
2024-12-04 22:07:07.697818600,8.426818603515626,0.2014094381816685,-0.6288005918741226,-1.0207304099544885
2024-12-04 22:07:07.707844600,8.4368447265625,1.2841875773787497,-1.6031676023215051,-1.8090271517798304
2024-12-04 22:07:07.717871400,8.446871337890625,2.092847892796993,-1.9596371077030896,-2.9620354498922823
2024-12-04 22:07:07.727897300,8.4568974609375,2.2667186050593853,-1.6979373053401707,-3.323601109369099
2024-12-04 22:07:07.737923300,8.46692333984375,2.341746665775776,-1.3084914130300282,-2.9088688001111147
2024-12-04 22:07:07.747950600,8.47695068359375,2.024722158814966,-1.033739236870408,-2.153780208143592
2024-12-04 22:07:07.757976600,8.4869765625,1.7644944748312237,-1.1014940917134284,-1.5992232486099005
2024-12-04 22:07:07.768002600,8.49700244140625,1.20470984377712,-1.0017746573328972,-1.1038037568952888
2024-12-04 22:07:07.778029600,8.507029541015624,0.6655316551610827,-0.8697562968939542,-0.3810145293775945
2024-12-04 22:07:07.788055300,8.51705517578125,0.1423737502366304,-0.8460515961796045,0.3085335227955132
2024-12-04 22:07:07.798082600,8.52708251953125,-0.4122077592164277,-0.6811936269342899,1.1507983669780195
2024-12-04 22:07:07.808108500,8.537108642578126,-0.6572437192872166,-0.5323439586818218,2.261217085033655
2024-12-04 22:07:07.818135600,8.547135498046876,-0.5592465786546469,-0.443224244248867,3.3517411621823907
2024-12-04 22:07:07.828161500,8.55716162109375,-0.7274497666746378,-0.3991337581098079,3.917838629645109
2024-12-04 22:07:07.838187500,8.5671875,-0.3659422671258449,-0.4558353040188551,3.994889136099815
2024-12-04 22:07:07.848214300,8.57721435546875,0.4482786050289869,-0.3295148629605769,4.086494237607718
2024-12-04 22:07:07.858240300,8.587240234375,0.8811085887745023,-0.2806242830634117,3.985556075087189
2024-12-04 22:07:07.868267500,8.597267578125,0.5479474782660603,-0.3160655988007784,3.684012922635674
2024-12-04 22:07:07.878293500,8.60729345703125,-0.0180836459621787,-0.1613765568703413,2.786082670658826
2024-12-04 22:07:07.888319500,8.617319580078124,-0.2888169418692589,-0.0990115783721208,1.832235301148892
2024-12-04 22:07:07.898346500,8.627346435546874,0.2091737885728478,0.0899415522098541,0.7139774139001965
2024-12-04 22:07:07.908372200,8.637372314453126,0.7401321381151675,0.3928314430952072,-0.2411839608177542
2024-12-04 22:07:07.918398200,8.647398193359376,0.7063678156793117,0.5847755721867084,-0.88935137033239
2024-12-04 22:07:07.928425200,8.65742529296875,0.4846376201331615,0.7237263622373342,-1.1737670085027814
2024-12-04 22:07:07.938451200,8.667451171875,0.7366033794671296,0.8768453783720731,-0.8431720952205359
2024-12-04 22:07:07.948478200,8.677478271484375,1.6761346388548612,0.8616939864695071,-0.1476370775923133
2024-12-04 22:07:07.958504200,8.687504150390625,2.9146804089993235,0.7491285145193338,0.6075697339273989
2024-12-04 22:07:07.968530200,8.6975302734375,4.032420702114701,0.3575871112346649,1.150328265248239
2024-12-04 22:07:07.978557400,8.707557373046875,4.685273200705647,-0.2490425653636455,1.3561414913468062
2024-12-04 22:07:07.988583400,8.71758349609375,4.754711478590965,-0.847799901151657,1.5803610194906592
2024-12-04 22:07:07.998610200,8.727610107421874,4.458946909540892,-1.345327397996187,1.922496440701932
2024-12-04 22:07:08.008636200,8.73763623046875,4.168183509778976,-1.6953753458976744,2.374227232011408
2024-12-04 22:07:08.018662100,8.747662109375,3.78114993930757,-1.8446236580789088,2.739263636338711
2024-12-04 22:07:08.028689200,8.757689208984376,3.519432601287961,-1.9417834711045023,2.9980504738643763
2024-12-04 22:07:08.038715100,8.767715087890625,3.532369824272394,-2.175136299905181,3.1089994505286214
2024-12-04 22:07:08.048742400,8.777742431640625,3.6766549610883,-2.5513953783839938,3.04231982370168
2024-12-04 22:07:08.058768400,8.787768310546875,3.820436240035295,-2.988766804951429,2.9370547378927467
2024-12-04 22:07:08.068794400,8.79779443359375,3.851466753593087,-3.4314351688832043,2.880079051217437
2024-12-04 22:07:08.078821000,8.807821044921875,3.7449873235583295,-3.831429343214631,2.777113182261586
2024-12-04 22:07:08.088847000,8.81784716796875,3.4597271973878145,-4.16442854115963,2.595327459090948
2024-12-04 22:07:08.098874400,8.827874267578125,2.948793106481433,-4.308122726345062,2.2164958997756243
2024-12-04 22:07:08.108900400,8.837900390625,2.43261994587779,-4.265732614383102,1.6131714022025463
2024-12-04 22:07:08.118926300,8.84792626953125,2.4156419230699537,-4.032834543612599,1.150263821709901
2024-12-04 22:07:08.128953300,8.857953369140626,2.7294933529526,-3.7681016571640966,0.9995127037502824
2024-12-04 22:07:08.138979000,8.86797900390625,2.96765328977406,-3.606220657902956,1.0143144054323434
2024-12-04 22:07:08.149006000,8.878006103515625,2.871536848321557,-3.523777352494001,1.012962990823388
2024-12-04 22:07:08.159032300,8.8880322265625,2.322328264078498,-3.445367248123884,0.9997536728993056
2024-12-04 22:07:08.169058300,8.898058349609375,1.5140011261373758,-3.2680840970695018,1.0848669281698762
2024-12-04 22:07:08.179085300,8.908085205078125,0.5079834244072436,-2.980899724838137,1.262827393963933
2024-12-04 22:07:08.189111300,8.918111328125,-2.0603683494746683,-2.6012346373081208,0.8417281800225377
2024-12-04 22:07:08.199138000,8.928137939453125,-5.874810317531228,-1.9123907878816129,-0.6318092721708118
2024-12-04 22:07:08.209164000,8.9381640625,-12.436166144418715,0.3244435510456562,-3.467892383664846
2024-12-04 22:07:08.219190000,8.94818994140625,-15.522551612079145,5.247451156637072,-3.061392480701208
2024-12-04 22:07:08.229217300,8.95821728515625,-5.089196531179547,9.495773786535858,1.5817558348499237
2024-12-04 22:07:08.239243300,8.9682431640625,5.408693857994676,11.776477077805994,4.204571166455746
2024-12-04 22:07:08.249270300,8.978270263671876,6.8897308721631765,12.680430827856062,5.02018612331748
2024-12-04 22:07:08.259296300,8.988296142578125,2.304723633804917,11.015074188125134,1.470917917344719
2024-12-04 22:07:08.269322200,8.998322265625,-2.876266214931011,6.948967489507794,-1.4132939958937465
2024-12-04 22:07:08.279349200,9.008349365234375,-2.587102651581168,2.402974749198556,-0.1015539563313126
2024-12-04 22:07:08.289375200,9.018375244140625,-0.5003472304403782,-0.7137444819271564,1.7956160276733335
2024-12-04 22:07:08.299402200,9.02840234375,-0.5180120664685964,-2.6240806753665207,2.4153254044666883
2024-12-04 22:07:08.309428200,9.03842822265625,-0.0299666837185621,-3.7144010466367,1.83993082408756
2024-12-04 22:07:08.319454200,9.0484541015625,1.1125035615056753,-3.752183372542262,1.2275767784930764
2024-12-04 22:07:08.329481200,9.058481201171874,1.702720447963476,-2.2405542362332342,1.1728333809144795
2024-12-04 22:07:08.339507500,9.068507568359376,1.0464040726542472,0.4720253913193941,1.1127385393053293
2024-12-04 22:07:08.349534200,9.0785341796875,0.1674947474896907,2.838356463253498,0.9154317141368984
2024-12-04 22:07:08.359560200,9.088560302734376,0.2606704593151807,4.141782409587503,0.973459321017936
2024-12-04 22:07:08.369586200,9.098586181640623,0.3591816869497299,4.258009911176562,1.1019149474740029
2024-12-04 22:07:08.379613200,9.10861328125,0.4709469484329223,3.2433196581691504,0.6986951621595769
2024-12-04 22:07:08.389639200,9.11863916015625,0.5348521421104669,1.6966805832773446,0.0788603323556482
2024-12-04 22:07:08.399666400,9.12866650390625,0.2992617635160684,0.1826964082747697,-0.4549919119972735
2024-12-04 22:07:08.409692200,9.138692138671876,0.2968067715793848,-1.04294837924242,-0.7310608698438853
2024-12-04 22:07:08.419718100,9.14871826171875,0.3095641079522669,-1.8967291083693505,-0.9130917268820108
2024-12-04 22:07:08.429745200,9.1587451171875,0.1565925374642014,-2.3092028250455856,-1.1816373034864662
2024-12-04 22:07:08.439771100,9.168771240234374,-0.102028880366683,-2.2264877169579265,-1.5420082002207636
2024-12-04 22:07:08.449798400,9.17879833984375,0.1169454406000673,-1.6660142268568277,-1.5777292096823452
2024-12-04 22:07:08.459824400,9.188824462890626,0.3485585861265659,-0.9084358639001846,-1.312687987937033
2024-12-04 22:07:08.469850400,9.198850341796875,0.0540051464319229,-0.2838496748507023,-1.1334290067650377
2024-12-04 22:07:08.479877000,9.208877197265624,-0.500431401592493,-0.0105400987148284,-0.3281441225966438
2024-12-04 22:07:08.489903000,9.218903076171877,-0.5475736765176058,0.2612520585954189,-0.3380853421028703
2024-12-04 22:07:08.499930000,9.22893017578125,-0.8272421201609075,0.5206541054099798,-0.6941579571213573
2024-12-04 22:07:08.509956000,9.2389560546875,-0.8236363507539033,0.4599357250750064,-0.6587409721076488
2024-12-04 22:07:08.519982300,9.248982421875,-0.2421944530345499,0.2520698042303324,-0.4152104846963658
2024-12-04 22:07:08.530009300,9.25900927734375,0.3353530675947666,-0.0047241059124469,-0.0865784963843878
2024-12-04 22:07:08.540035300,9.269035400390624,0.2344580135636031,-0.2142810485839843,0.1060752148817293
2024-12-04 22:07:08.550062000,9.27906201171875,-0.1204857435554265,-0.5030161573886871,0.1366928185233846
2024-12-04 22:07:08.560088000,9.289088134765626,-0.4327005121469497,-0.8222989646703004,0.1412061312293633
2024-12-04 22:07:08.570114000,9.299114013671876,-0.2798714188694954,-1.0565466964840888,0.151933788405545
2024-12-04 22:07:08.580141300,9.309141357421876,0.2032294932156801,-1.2392501190215348,0.1657542970305308
2024-12-04 22:07:08.590167300,9.319167236328123,0.6019353813022374,-1.1735510276645422,0.3853026550255715
2024-12-04 22:07:08.600194300,9.3291943359375,0.7875931236006319,-0.8822025214910507,0.6313418738547713
2024-12-04 22:07:08.610220300,9.33922021484375,0.8400298516720532,-0.4830903906911611,0.7861311612892895
2024-12-04 22:07:08.620246300,9.349246337890625,0.7528953197069466,-0.1151619181841611,0.8347243656750768
2024-12-04 22:07:08.630273300,9.359273193359376,0.7188866671212018,0.1630430287778377,0.7114958992827684
2024-12-04 22:07:08.640299300,9.36929931640625,0.6287598214723169,0.3811731540054082,0.4807956308174878
2024-12-04 22:07:08.650325200,9.3793251953125,0.4386043293632566,0.5122849209934472,0.2672444308780133
2024-12-04 22:07:08.660352300,9.389352294921874,0.4089741841226816,0.5030903916686773,0.0703979897629469
2024-12-04 22:07:08.670378200,9.399378173828126,0.5857995084069669,0.4301005587816238,-0.1303342798095196
2024-12-04 22:07:08.680405200,9.4094052734375,0.7094570138663053,0.3292757935076952,-0.278117999330908
2024-12-04 22:07:08.690431200,9.41943115234375,0.8022446031570434,0.1595452497899532,-0.3816359492115676
2024-12-04 22:07:08.700457200,9.429457275390623,0.8548305304408073,-0.0723433516770601,-0.4841524669647216
2024-12-04 22:07:08.710484200,9.439484130859377,0.8627331202588975,-0.376430927914381,-0.5617050777226686
2024-12-04 22:07:08.720510200,9.44951025390625,0.7282675127983093,-0.595798485982418,-0.5397550386559218
2024-12-04 22:07:08.730537200,9.459537109375,0.455802716923505,-0.7572112832099199,-0.3993994963739067
2024-12-04 22:07:08.740563200,9.469563232421876,0.3505811049301177,-0.9379331765413284,-0.1522141762495041
2024-12-04 22:07:08.750590200,9.479590087890625,0.3733784084759652,-0.976986837556958,0.0481424649436026
2024-12-04 22:07:08.760616200,9.4896162109375,0.4735620993673801,-0.9824807587981224,0.2406900398209691
2024-12-04 22:07:08.770642200,9.49964208984375,0.4370325500018894,-0.9466928215801717,0.4783925151985138
2024-12-04 22:07:08.780669200,9.509669189453126,0.2718132000982761,-0.9150281017720698,0.6195874309141188
2024-12-04 22:07:08.790695200,9.519695068359376,0.1367249306946993,-0.9999795906096696,0.6419580334804952
2024-12-04 22:07:08.800721200,9.52972119140625,0.0985352660972625,-1.1028811621576546,0.5921179708387703
2024-12-04 22:07:08.810748400,9.53974853515625,0.1381681152403354,-1.338640467578173,0.3510691076427698
2024-12-04 22:07:08.820774400,9.5497744140625,0.1478740281533449,-1.504171806040406,0.1231068858392536
2024-12-04 22:07:08.830801200,9.55980126953125,0.1583369699787348,-1.5231851340681313,-0.0717453857839107
2024-12-04 22:07:08.840827100,9.5698271484375,0.1862321811854839,-1.3098334752887486,-0.2029940770246088
2024-12-04 22:07:08.850853000,9.57985302734375,0.1904191845465451,-0.9018518093347548,-0.364028542459011
2024-12-04 22:07:08.860880100,9.589880126953124,0.1167431229609996,-0.3363876713395118,-0.6239335703596472
2024-12-04 22:07:08.870906000,9.599906005859374,-0.138377301011607,0.1731137564152479,-0.9368605788737536
2024-12-04 22:07:08.880933400,9.609933349609374,-0.4767144259184598,0.442480147883296,-1.168587998429686
2024-12-04 22:07:08.890959400,9.61995947265625,-0.88118961812146,0.4906225397616625,-1.3158093348279594
2024-12-04 22:07:08.900985300,9.6299853515625,-1.2709943338066338,0.4029875109285116,-1.3205005613841116
2024-12-04 22:07:08.911012000,9.64001220703125,-1.5274819544792175,0.2242541610658168,-1.369129275474697
2024-12-04 22:07:08.921038000,9.6500380859375,-1.6973142050057648,0.1346580612927675,-1.4273127305045723
2024-12-04 22:07:08.931065000,9.660065185546877,-1.6323481040984391,0.1583867274045944,-1.4767086295753715
2024-12-04 22:07:08.941091300,9.67009130859375,-1.3134189325600862,0.2425350831657648,-1.440332955597341
2024-12-04 22:07:08.951117300,9.680117431640625,-0.931249753254652,0.3867547535300255,-1.3704358280286193
2024-12-04 22:07:08.961144300,9.690144287109376,-0.4853016004672273,0.4824386487841606,-1.1727055167511105
2024-12-04 22:07:08.971170300,9.70017041015625,-0.1080716676622629,0.4771697684705257,-0.902854118245095
2024-12-04 22:07:08.981197000,9.710197021484374,0.0426105132469907,0.3182020263075828,-0.6502718344479799
2024-12-04 22:07:08.991223000,9.72022314453125,0.0812444692795164,0.1919640028357505,-0.4036686250604689
2024-12-04 22:07:09.001249000,9.7302490234375,-0.0417775147552601,0.1386906778097152,-0.1681390367425978
2024-12-04 22:07:09.011276300,9.7402763671875,-0.2324053188174963,0.2320288867205381,-0.0628276275739073
2024-12-04 22:07:09.021302300,9.75030224609375,-0.4110153345614671,0.4207634061157703,0.0212789348721504
2024-12-04 22:07:09.031329300,9.760329345703123,-0.5442489160090684,0.7010574343115091,0.0498867513276636
2024-12-04 22:07:09.041355000,9.77035498046875,-0.5321288546264171,1.1094354061067104,0.1451527134306728
2024-12-04 22:07:09.051381000,9.780381103515625,-0.5022866740703582,1.5842933905035257,0.2001199828930199
2024-12-04 22:07:09.061408300,9.790408203125,-0.4653858071744441,1.941144588679075,0.0354945072293281
2024-12-04 22:07:09.071434200,9.800434326171874,-0.4348422003507614,2.293669740349054,-0.215590962138772
2024-12-04 22:07:09.081461200,9.810461181640624,-0.4271370328009128,2.7711212483704086,-0.5213222139298915
2024-12-04 22:07:09.091487200,9.8204873046875,-0.4912345341801643,3.3071003486841914,-0.9208923176303504
2024-12-04 22:07:09.101513200,9.83051318359375,-0.5982242518246174,3.8305817864745855,-1.3062702298492193
2024-12-04 22:07:09.111540000,9.8405400390625,-0.7266413729012012,4.296178606051206,-1.534791546840221
2024-12-04 22:07:09.121566200,9.850566162109375,-0.9203004892170428,4.665718020886183,-1.5056832335166632
2024-12-04 22:07:09.131593200,9.86059326171875,-1.3778221388876437,5.14829227874875,-1.2134525376811622
2024-12-04 22:07:09.141619200,9.870619140625,-1.9782816024184229,5.713059082129598,-0.6663188600160181
2024-12-04 22:07:09.151645200,9.880645263671877,-2.495634912717342,6.110941378873586,0.3278103971302509
2024-12-04 22:07:09.161672200,9.890672119140625,-3.0229917306363583,5.953576395732164,1.8925196739807724
2024-12-04 22:07:09.171698200,9.9006982421875,-3.837950853937864,5.333353662589192,3.067807900701463
2024-12-04 22:07:09.181725200,9.91072509765625,-4.638060783153772,4.189703852191567,3.233706026649475
2024-12-04 22:07:09.191751200,9.920751220703124,-4.965085582864284,2.8192279844135046,2.5787837360471486
2024-12-04 22:07:09.201777200,9.930777099609376,-4.667918161278963,1.6411755536764858,1.3648141887545584
2024-12-04 22:07:09.211804200,9.94080419921875,-3.801215991258621,1.029246601626277,0.221248403378576
2024-12-04 22:07:09.221830100,9.950830078125,-2.835859385740757,0.9013502895534038,-0.6296354352630674
2024-12-04 22:07:09.231857400,9.960857421875,-1.893324852883816,0.9410808269172908,-1.4541009303174912
2024-12-04 22:07:09.241883400,9.97088330078125,-0.947065162023902,1.204708382472396,-2.162167366608232
2024-12-04 22:07:09.251909400,9.980909423828123,-0.3553776184916496,1.521542627558112,-2.698662453620136
2024-12-04 22:07:09.261936000,9.99093603515625,-0.1543785877417773,1.8219664205908768,-2.8714462474286555
2024-12-04 22:07:09.271962000,10.000962158203125,-0.1395831696700304,2.053376298630237,-3.051573097476363
2024-12-04 22:07:09.281989000,10.010989013671876,-0.3232061182051897,2.2181629562050102,-3.4615246021986006
2024-12-04 22:07:09.292015000,10.02101513671875,-0.761155636921525,2.3035446531534194,-3.7817823919922113
2024-12-04 22:07:09.302041300,10.031041259765624,-1.053296316386014,2.102417100653052,-3.811016085261106
2024-12-04 22:07:09.312068000,10.041068115234374,-0.6538438477158546,1.585025796431303,-3.3099799957737326
2024-12-04 22:07:09.322094000,10.051093994140626,0.3167636640675366,0.9408575395554304,-1.985440826523304
2024-12-04 22:07:09.332121000,10.06112109375,1.6291805799782275,0.2118582053512334,-0.9124750562883912
2024-12-04 22:07:09.342147000,10.07114697265625,2.556051095235348,-0.4399713799327611,-0.4114912084449082
2024-12-04 22:07:09.352173000,10.081173095703123,2.2414123143672944,-0.8175099768280982,-0.790402116606757
2024-12-04 22:07:09.362200300,10.091200439453123,1.249099312862754,-0.6855068139582872,-0.3073595105800777
2024-12-04 22:07:09.372226300,10.101226318359377,0.3599041560053825,-0.5902636482089758,0.6895322700820863
2024-12-04 22:07:09.382253000,10.111253173828125,-0.3935882528118788,-0.8799404217779636,1.325981184752285
2024-12-04 22:07:09.392279000,10.121279052734376,-1.2540472906589508,-1.2797452110171317,2.0199439846277234
2024-12-04 22:07:09.402305000,10.131304931640624,-1.6416656752809882,-1.6402561007440088,2.827240610477328
2024-12-04 22:07:09.412332300,10.141332275390624,-1.3971180832490324,-1.8622493311405184,3.2969825670346617
2024-12-04 22:07:09.422358300,10.151358154296876,-0.8401941023230552,-1.9042180028200149,3.554472058226168
2024-12-04 22:07:09.432385300,10.16138525390625,-0.161179280732572,-1.961718590152264,3.696771574182808
2024-12-04 22:07:09.442411300,10.171411376953126,0.6972419676765799,-1.888078184401989,3.7723967240095138
2024-12-04 22:07:09.452437200,10.181437255859375,1.8289117096841327,-1.656966412526369,3.9473964403018353
2024-12-04 22:07:09.462464000,10.191464111328123,2.872234182935953,-1.5459329724490642,4.028482485882938
2024-12-04 22:07:09.472490000,10.201489990234377,3.280438551729917,-1.396933082070947,4.057852080491185
2024-12-04 22:07:09.482517200,10.211517333984377,2.707992299762368,-1.153601295569539,3.935280470572412
2024-12-04 22:07:09.492543200,10.221543212890625,1.6534280092671512,-0.7259130586266517,3.2839293164551258
2024-12-04 22:07:09.502569200,10.2315693359375,0.7075380285024643,0.0288262815117835,2.3159413395203647
2024-12-04 22:07:09.512596200,10.24159619140625,-0.6196931563109159,0.843760270372033,1.0712312015272676
2024-12-04 22:07:09.522622200,10.251622314453124,-1.6405699889987706,1.4959820698440074,-0.1726804795645177
2024-12-04 22:07:09.532649200,10.261649169921874,-1.9845602442964911,1.8690858991622925,-0.9154390206605196
2024-12-04 22:07:09.542675200,10.27167529296875,-1.6214999623477455,2.059438375148177,-0.8420737785898148
2024-12-04 22:07:09.552701200,10.281701171875,-0.5433721331745386,2.453599021020532,-0.5076978854641317
2024-12-04 22:07:09.562728200,10.291728271484375,0.5196837990731,2.494854575994611,-0.1673844189830124
2024-12-04 22:07:09.572754200,10.301754150390623,1.225823651215434,2.188033775401115,0.331866686783731
2024-12-04 22:07:09.582781200,10.31178125,1.615811103056371,1.680234475389123,0.7968322227194905
2024-12-04 22:07:09.592807200,10.32180712890625,2.030936211024225,1.054832293781638,1.2357929643049836
2024-12-04 22:07:09.602833200,10.331833251953125,2.490694533705711,0.5891115555644035,1.7485910955175756
2024-12-04 22:07:09.612860200,10.341860107421876,2.947795912137628,0.016708558216691,2.333077037107945
2024-12-04 22:07:09.622886100,10.35188623046875,3.335512204176187,-0.7533388256907463,2.7213521320730445
2024-12-04 22:07:09.632913200,10.3619130859375,3.5584517755120992,-1.6430074452787635,2.812499845202267
2024-12-04 22:07:09.642939100,10.371939208984376,3.812306709593534,-2.407808160704374,2.9089588164821265
2024-12-04 22:07:09.652965400,10.38196533203125,4.046004990831017,-2.905984476846456,3.01225669387132
2024-12-04 22:07:09.662992100,10.3919921875,4.319855834236741,-3.208886058169603,3.1334929635331035
2024-12-04 22:07:09.673018000,10.40201806640625,4.530694048890471,-3.45309579654932,3.127404583530128
2024-12-04 22:07:09.683045000,10.412045166015623,4.460866479426622,-3.6635552410185337,2.9484412243038416
2024-12-04 22:07:09.693071000,10.422071044921877,4.288668084290624,-3.900553148323297,2.73499370393455
2024-12-04 22:07:09.703097000,10.43209716796875,4.060657201039791,-4.119296437013149,2.496966161321104
2024-12-04 22:07:09.713124400,10.442124267578125,3.811716342484951,-4.27211325533092,2.133049262543022
2024-12-04 22:07:09.723150300,10.452150390625,3.619128070271015,-4.380909730136394,1.7775972636409103
2024-12-04 22:07:09.733177000,10.462177001953124,3.438838138616085,-4.467478006520867,1.4887714078128338
2024-12-04 22:07:09.743203000,10.472203125,3.2900182809799907,-4.507318434000015,1.577575188164413
2024-12-04 22:07:09.753229000,10.48222900390625,3.0918729591608045,-4.592109763839841,1.7593140034534036
2024-12-04 22:07:09.763256000,10.492256103515626,2.990527969405055,-4.706940842634439,1.6478063699930905
2024-12-04 22:07:09.773282300,10.5022822265625,2.995281885933876,-4.664031090712547,1.2667021895706654
2024-12-04 22:07:09.783309300,10.512309326171875,2.791665439227223,-4.361299020737409,0.7682328818313777
2024-12-04 22:07:09.793335300,10.522335205078123,2.3433307200968265,-3.8813989505201576,0.5353714898094535
2024-12-04 22:07:09.803361300,10.532361328125,1.7787889576435088,-3.2709973541676995,0.5950174186073244
2024-12-04 22:07:09.813388000,10.542387939453125,1.126040503948927,-2.601276722884178,0.8182062885291874
2024-12-04 22:07:09.823414000,10.5524140625,0.5046487270265817,-2.063478590449691,0.4815246026791632
2024-12-04 22:07:09.833441300,10.562441162109376,-1.2859803060144186,-1.370775727507472,-0.6047809799917042
2024-12-04 22:07:09.843467300,10.57246728515625,-8.128803881052136,0.7212479894250631,-2.73795956800282
2024-12-04 22:07:09.853493200,10.5824931640625,-12.604874359351395,5.331366288164258,-2.8598499176591634
2024-12-04 22:07:09.863520300,10.592520263671876,-4.386422356078028,10.14971758749485,0.3453684117831289
2024-12-04 22:07:09.873546200,10.602546142578126,3.62961848462522,14.007356307721135,4.381593036225438
2024-12-04 22:07:09.883573200,10.6125732421875,2.5465701501846314,17.145172687411307,6.681779611122608
2024-12-04 22:07:09.893599200,10.62259912109375,-0.3933618967100977,15.743435419929028,1.84577385102734
2024-12-04 22:07:09.903625200,10.632625244140623,-0.3372966028779744,9.113348586642742,-2.900516566829383
2024-12-04 22:07:09.913652000,10.64265185546875,-0.8654375569120049,2.9727888990968463,-2.410839198963344
2024-12-04 22:07:09.923678000,10.652677978515625,-2.638408768187463,-0.4942068279892206,-0.2978467821516096
2024-12-04 22:07:09.933704000,10.662703857421874,-2.7076702282011507,-2.435590486121177,0.8924369152575731
2024-12-04 22:07:09.943731000,10.67273095703125,-0.6668979750782251,-3.668376377564668,1.547331294939667
2024-12-04 22:07:09.953757000,10.6827568359375,0.5392319646298885,-4.033526617529988,1.7161685430794953
2024-12-04 22:07:09.963784000,10.692783935546874,0.1305465343207121,-3.211352156022191,1.6836419457450509
2024-12-04 22:07:09.973810000,10.702809814453126,0.4379720228090882,-1.2972206619530915,1.0914677877396344
2024-12-04 22:07:09.983836000,10.7128359375,1.5854206409677862,0.6529676494032144,0.3784903446622192
2024-12-04 22:07:09.993863000,10.72286279296875,1.6783602059498428,2.125264307755232,0.320138035871461
2024-12-04 22:07:10.003889000,10.732888916015623,0.758444770527631,2.79461785929203,0.4486073985919356
2024-12-04 22:07:10.013916000,10.742916015625,-0.4709468023024499,2.621018365186453,0.5562951084379106
2024-12-04 22:07:10.023942000,10.75294189453125,-0.8692062617957591,1.8393325659334656,0.4510483254706486
2024-12-04 22:07:10.033967900,10.7629677734375,-0.2663616566941142,0.886379514914751,0.3714396589657291
2024-12-04 22:07:10.043995000,10.772994873046876,0.5112982480436563,0.1447591840684413,0.4076419491382315
2024-12-04 22:07:10.054020900,10.783020751953124,1.0890829384297132,-0.3687158234924078,0.4937427541414275
2024-12-04 22:07:10.064048000,10.793048095703124,1.1133932038217782,-0.5871499001026154,0.4626811513256281
2024-12-04 22:07:10.074074000,10.80307421875,0.7708949406474829,-0.6246919875115156,0.1595130280207842
2024-12-04 22:07:10.084100000,10.81310009765625,0.3843940157480537,-0.8211287518471478,-0.6111965095898136
2024-12-04 22:07:10.094126800,10.823126953125,0.2421523674584925,-0.887554403913021,-1.4847063503310085
2024-12-04 22:07:10.104152800,10.83315283203125,0.2240641914516687,-0.8533581198006868,-2.0723888960056005
2024-12-04 22:07:10.114179800,10.843179931640623,0.1221254735864698,-0.6663748279869556,-2.19111215993315
2024-12-04 22:07:10.124205800,10.853205810546877,-0.0783569128781557,-0.2665641935288906,-2.371738922327012
2024-12-04 22:07:10.134232000,10.863232177734377,-0.5715986952275037,-0.0822656107544898,-2.3735101697832346
2024-12-04 22:07:10.144259000,10.873259033203125,-0.9187805861733852,-0.1342033032625913,-2.057210616096109
2024-12-04 22:07:10.154285000,10.88328515625,-1.1262333961725235,-0.3418757473617791,-1.8137388366021208
2024-12-04 22:07:10.164311800,10.893311767578124,-0.950986280990392,-0.8647954596161842,-1.5112579649090767
2024-12-04 22:07:10.174337800,10.903337890625,-0.4863999536305666,-1.5672510702878235,-1.0948107414919883
2024-12-04 22:07:10.184365000,10.913364990234374,-0.0062501464359462,-2.2105647561609745,-0.6832775205362588
2024-12-04 22:07:10.194391000,10.92339111328125,0.3487072008170187,-2.689954538768529,-0.3625071050453931
2024-12-04 22:07:10.204417000,10.9334169921875,0.6120037708520889,-3.022822219288349,-0.1795710427958518
2024-12-04 22:07:10.214444000,10.943444091796875,0.689285747975111,-3.054424979776144,-0.1727873740050941
2024-12-04 22:07:10.224470000,10.953469970703123,0.7862222736388444,-2.76804140253365,-0.2718958368804305
2024-12-04 22:07:10.234496000,10.96349609375,1.0550865608036517,-2.3679303238242864,-0.4022065896838903
2024-12-04 22:07:10.244523000,10.97352294921875,1.241106414412707,-1.93244456487298,-0.5207778048548847
2024-12-04 22:07:10.254549000,10.983549072265625,1.3310644793659447,-1.3966677091330288,-0.5760524597659706
2024-12-04 22:07:10.264576000,10.993575927734376,1.5375176108032464,-0.9215425982326269,-0.6213963800322264
2024-12-04 22:07:10.274602000,11.00360205078125,1.7664865254312752,-0.5409668255984783,-0.5913567041426897
2024-12-04 22:07:10.284628000,11.0136279296875,1.6481535759955643,-0.151421564567089,-0.5560287856519222
2024-12-04 22:07:10.294654700,11.02365478515625,1.325805389793962,0.013590133935213,-0.4416952811159193
2024-12-04 22:07:10.304680700,11.0336806640625,0.9892752412438393,0.0030400983482599,-0.1695169009670615
2024-12-04 22:07:10.314708000,11.0437080078125,0.5595563752561807,-0.0667062225729227,0.2352420035481452
2024-12-04 22:07:10.324734000,11.05373388671875,0.0807936385057866,-0.2044137345641851,0.7737409777283668
2024-12-04 22:07:10.334760000,11.063760009765623,-0.3408697121243924,-0.322246917784214,1.429377115688473
2024-12-04 22:07:10.344787000,11.073786865234377,-0.588701732654497,-0.3986848452985286,1.910409404806048
2024-12-04 22:07:10.354813000,11.08381298828125,-0.6713708096433431,-0.4179202916443347,2.1674111124806106
2024-12-04 22:07:10.364840000,11.09383984375,-0.5865215390712022,-0.3593593816041946,2.0714327643245456
2024-12-04 22:07:10.374866000,11.103865966796874,-0.3559801874946802,-0.3058767977416515,1.6115525688290595
2024-12-04 22:07:10.384892000,11.113891845703124,0.0368066858064383,-0.2105085443079471,0.9630598728828133
2024-12-04 22:07:10.394919000,11.1239189453125,0.4409528652507811,0.0055921209186315,0.4143348343729973
2024-12-04 22:07:10.404945000,11.13394482421875,0.5413602818954736,0.1607072793066501,-0.040672932780534
2024-12-04 22:07:10.414972000,11.143971923828126,0.3221136467933654,0.2119248408466577,-0.3566112519398331
2024-12-04 22:07:10.424998100,11.153998046875,0.0564361729711294,0.2466092007368802,-0.6948001274824142
2024-12-04 22:07:10.435024100,11.164024169921875,-0.1763010812144726,0.13206103053689,-1.263184390708059
2024-12-04 22:07:10.445051000,11.17405078125,-0.3794657655656338,-0.1169271742910146,-1.7449363724023104
2024-12-04 22:07:10.455076900,11.184076904296877,-0.4858353054851293,-0.3581254558950662,-2.2619668804876505
2024-12-04 22:07:10.465104000,11.194103759765625,-0.4303676852852106,-0.4731996957957744,-3.009137392807007
2024-12-04 22:07:10.475129900,11.2041298828125,-0.3075701576560735,-0.369220850405097,-3.5349686085939407
2024-12-04 22:07:10.485156000,11.214156005859374,-0.222165079832077,-0.0134644617289304,-3.7867069889128206
2024-12-04 22:07:10.495183000,11.22418310546875,-0.3155103030055761,0.2637169874042272,-3.864823078772426
2024-12-04 22:07:10.505209000,11.234208984375,-0.615019319280982,0.4308715431541204,-3.589592179185152
2024-12-04 22:07:10.515235800,11.24423583984375,-1.2503905217170714,0.4996709386140108,-3.159738288640976
2024-12-04 22:07:10.525261800,11.25426171875,-2.2293735015273093,0.6521662698924541,-2.632777192041278
2024-12-04 22:07:10.535287800,11.264287841796875,-3.3018636170744893,1.05415717099905,-1.8833667918406425
2024-12-04 22:07:10.545315000,11.274315185546875,-4.1209073793411255,1.7124848861306905,-0.9267691007092594
2024-12-04 22:07:10.555341000,11.284341064453123,-4.459685745209455,2.409244915509224,-0.1196688742145895
2024-12-04 22:07:10.565368000,11.2943681640625,-4.130575371396541,2.9745237600654364,0.4294336193054914
2024-12-04 22:07:10.575393800,11.304393798828125,-3.3886031583726406,3.521619297677278,0.7545983242325485
2024-12-04 22:07:10.585419800,11.314419677734374,-2.4513830985367298,3.9515059214472767,1.1572082340203225
2024-12-04 22:07:10.595446800,11.32444677734375,-1.7981576749801635,4.244304041907191,1.7665183818742631
2024-12-04 22:07:10.605473000,11.33447314453125,-1.4955086071133612,4.483991334426403,2.097919496972859
2024-12-04 22:07:10.615500000,11.3445,-1.107116023248434,4.780727963379025,2.1989590740412472
2024-12-04 22:07:10.625526000,11.354526123046876,-0.6910638635635376,5.275923217883705,2.4703110863685604
2024-12-04 22:07:10.635552000,11.364552001953124,-0.3517360471189021,5.644842454993724,2.924272120948136
2024-12-04 22:07:10.645578800,11.374578857421875,-0.1549228506863117,5.5676902417302125,3.404365375649929
2024-12-04 22:07:10.655604700,11.384604736328123,-0.1059703114688396,4.851452189421654,3.7269127376854416
2024-12-04 22:07:10.665632000,11.394632080078123,-0.2495417470574378,3.783858029222488,3.7569232605457294
2024-12-04 22:07:10.675658000,11.404657958984377,-0.5750631564676761,2.738366395238042,3.5277123538553714
2024-12-04 22:07:10.685684000,11.41468408203125,-1.1196528487384318,1.933431237822771,2.974848461975157
2024-12-04 22:07:10.695711000,11.4247109375,-1.5278618937075137,1.4655822554051876,1.9816214143656192
2024-12-04 22:07:10.705737000,11.434737060546874,-1.7794044591933489,1.1766413948953152,0.7416302677184343
2024-12-04 22:07:10.715764000,11.444763916015624,-2.0618080268889662,1.2810182996928692,-0.4312938602194189
2024-12-04 22:07:10.725790000,11.4547900390625,-2.256448555457592,1.628957877138257,-1.477153742994368
2024-12-04 22:07:10.735816000,11.46481591796875,-2.397963058516383,2.0999843205481765,-2.252868943405151
2024-12-04 22:07:10.745843000,11.474843017578126,-2.594581609159708,2.6070810252487657,-2.7009774525642394
2024-12-04 22:07:10.755869000,11.484868896484375,-2.7232173414230343,2.9382173519313333,-3.0547590340361
2024-12-04 22:07:10.765896000,11.49489599609375,-2.6999738284796475,2.965256750026345,-3.272092455928028
2024-12-04 22:07:10.775922200,11.504922119140623,-2.438800680339336,2.753875514537096,-3.2513585877180096
2024-12-04 22:07:10.785948200,11.5149482421875,-2.057706875180453,2.4233020824342963,-3.25750278956145
2024-12-04 22:07:10.795975000,11.524974853515625,-1.6395434224300085,1.9210487261116505,-3.2189433418035507
2024-12-04 22:07:10.806001000,11.5350009765625,-1.273415861865133,1.3479904797255993,-2.9317347119137644
