time,seconds_elapsed,z,y,x
2024-12-04 21:48:44.808697300,0.045697265625,-0.1877168667852878,-0.0671510437309741,-0.2817408660031855
2024-12-04 21:48:44.818731300,0.055731201171875,-0.2240413950979709,-0.0952111631758511,-0.2976408843159675
2024-12-04 21:48:44.828766500,0.065766357421875,-0.2564472886621952,-0.1361265264101326,-0.2650643103599548
2024-12-04 21:48:44.838800100,0.075800048828125,-0.2218716498434543,-0.1602212493553757,-0.2476686466619372
2024-12-04 21:48:44.848835300,0.08583544921875,-0.1781704552829265,-0.1672717523887753,-0.2347287933290004
2024-12-04 21:48:44.858870300,0.095870361328125,-0.0647463206768035,-0.1884080639198422,-0.1854023062326014
2024-12-04 21:48:44.868904400,0.105904541015625,0.0788759683161973,-0.2323532963693141,-0.1448470084823667
2024-12-04 21:48:44.878939400,0.115939453125,0.1812771891266107,-0.3060813804030418,-0.1757626634888351
2024-12-04 21:48:44.888974000,0.12597412109375,0.2489087098509073,-0.3142009739726781,-0.1744055497914552
2024-12-04 21:48:44.899008300,0.13600830078125,0.2235679323673248,-0.2668044320255517,-0.1210194120407104
2024-12-04 21:48:44.909044200,0.146044189453125,0.087629183614254,-0.1682908663034439,-0.0454299180492758
2024-12-04 21:48:44.919079200,0.1560791015625,-0.0716436789751052,0.0193804077744483,0.0905307502746581
2024-12-04 21:48:44.929113000,0.166113037109375,-0.1541863531053066,0.2113262904316186,0.2206372857429087
2024-12-04 21:48:44.939148300,0.176148193359375,-0.2504875034749508,0.2508326636508107,0.2719413565225899
2024-12-04 21:48:44.949183200,0.186183349609375,-0.3509656472682952,0.2158957903042435,0.2638889829702675
2024-12-04 21:48:44.959217200,0.196217041015625,-0.3651590077936649,0.170288908252865,0.2146852454707026
2024-12-04 21:48:44.969252000,0.206252197265625,-0.3325023543387651,0.1219772972874343,0.1397447169072926
2024-12-04 21:48:44.979286300,0.216286376953125,-0.2606727974027395,0.0809102506227791,0.0763936499811708
2024-12-04 21:48:44.989321200,0.2263212890625,-0.1878495532542467,0.0608553045876324,0.037154549396038
2024-12-04 21:48:44.999356200,0.236356201171875,-0.1658598397642374,0.0510780069388449,0.064545829668641
2024-12-04 21:48:45.009390000,0.24639013671875,-0.1425210497528314,0.0571592265486717,0.0873264012753963
2024-12-04 21:48:45.019425300,0.25642529296875,-0.1211322247654199,0.046225013949722,0.0895278568424284
2024-12-04 21:48:45.029460200,0.266460205078125,-0.0953249988138675,0.0290478153079748,0.0670809011042118
2024-12-04 21:48:45.039494100,0.276494140625,-0.0477460860371589,0.009014350452274,-0.0207271462082862
2024-12-04 21:48:45.049529000,0.286529052734375,-0.0280634804457426,-0.0077731182195246,-0.1167943416915833
2024-12-04 21:48:45.059564000,0.29656396484375,-0.0150175363898277,0.0066324237518012,-0.1435119604863226
2024-12-04 21:48:45.069598200,0.30659814453125,-0.0330535438179969,0.0189246268309652,-0.1597892876788973
2024-12-04 21:48:45.079633200,0.316633056640625,-0.0735217478066682,0.0553881252229213,-0.1504671864517033
2024-12-04 21:48:45.089668000,0.326668212890625,-0.1294558164745569,0.0778223676100373,-0.1409510239571333
2024-12-04 21:48:45.099702000,0.336701904296875,-0.1854202802807092,0.0875957197360694,-0.0715703214779496
2024-12-04 21:48:45.109737200,0.3467373046875,-0.3127992904812097,0.1320456868372857,0.027715689921379
2024-12-04 21:48:45.119771100,0.356771240234375,-0.4020779948681592,0.3588090542450547,0.1226923136889934
2024-12-04 21:48:45.129806000,0.36680615234375,-0.2858656908482313,1.0633952472046018,0.5001071380741894
2024-12-04 21:48:45.139841000,0.376841064453125,-0.1369926417201757,1.6356060829810797,0.9780573893979192
2024-12-04 21:48:45.149875200,0.386875244140625,-0.2177776585280895,1.2570134469881653,0.9225302940957248
2024-12-04 21:48:45.159910100,0.39691015625,-0.3404208723783493,0.7412740016266703,0.5572533590108156
2024-12-04 21:48:45.169945300,0.4069453125,-0.372654331985116,0.2715805603861808,0.2116794877834618
2024-12-04 21:48:45.179979000,0.41697900390625,-0.3153337773948907,-0.0855637755170464,-0.0777808665558695
2024-12-04 21:48:45.190014200,0.42701416015625,-0.2460106503218412,-0.3115829004287719,-0.4350077661760151
2024-12-04 21:48:45.200049200,0.437049072265625,-0.2071808611899614,-0.4863860712356865,-0.67910454570055
2024-12-04 21:48:45.210083300,0.447083251953125,-0.1755079580754041,-0.5646963684931398,-0.7142761045858264
2024-12-04 21:48:45.220118000,0.457117919921875,-0.1194242518037557,-0.580942716025561,-0.6673172234036028
2024-12-04 21:48:45.230153000,0.467153076171875,-0.055045595395565,-0.5641906109280884,-0.6200934076748787
2024-12-04 21:48:45.240187100,0.477187255859375,-0.0844675047129392,-0.507214485861361,-0.5169168185777961
2024-12-04 21:48:45.250222000,0.48722216796875,-0.1536082609564066,-0.4053120083533227,-0.3760384214654564
2024-12-04 21:48:45.260256000,0.497256103515625,-0.2108107421249151,-0.2769154916733503,-0.2536294547624886
2024-12-04 21:48:45.270291200,0.507291259765625,-0.2768810048818588,-0.1420187993191182,-0.1504461436636746
2024-12-04 21:48:45.280326100,0.517326171875,-0.4008844011694192,-0.0071975102886557,-0.0858420079365372
2024-12-04 21:48:45.290360300,0.5273603515625,-0.5275152233511209,0.0694208883590996,-0.0243234171345829
2024-12-04 21:48:45.300395300,0.537395263671875,-0.7574819168448448,0.1293354049652814,-0.1372613756589591
2024-12-04 21:48:45.310430000,0.547429931640625,-0.9907108270049094,0.1626587056353688,-0.2622802325993776
2024-12-04 21:48:45.320464100,0.557464111328125,-0.945660555922985,0.1619395975805819,-0.4294486707441508
2024-12-04 21:48:45.330499000,0.5674990234375,-0.659784928202629,0.2175046868056058,-0.6094428343228996
2024-12-04 21:48:45.340534300,0.5775341796875,-0.1204138473629951,0.0230929985567927,-0.7056244499661029
2024-12-04 21:48:45.350568000,0.58756787109375,0.2097258694976568,-0.0861529735818505,-0.8987031360454857
2024-12-04 21:48:45.360603100,0.59760302734375,0.4076975883156061,-0.011393208412826,-1.1926961653783916
2024-12-04 21:48:45.370638000,0.60763818359375,0.5045908593595028,-0.0295899593606591,-1.2032564300984143
2024-12-04 21:48:45.380672300,0.61767236328125,0.5733160205394029,0.0975382909491658,-1.1982703122489151
2024-12-04 21:48:45.390707200,0.627707275390625,0.4809703297972679,0.28469313993752,-1.1782581824421885
2024-12-04 21:48:45.400742100,0.6377421875,0.2487619948565959,0.340747620114684,-0.9520774372279645
2024-12-04 21:48:45.410776000,0.647776123046875,0.1297369715034961,0.3191232328057289,-0.6728383249126374
2024-12-04 21:48:45.420811300,0.657811279296875,0.1813911708950996,0.4075628560200333,-0.4586491923958062
2024-12-04 21:48:45.430846200,0.66784619140625,-0.0345242008924484,0.5857444172188639,-0.0974444751858711
2024-12-04 21:48:45.440880000,0.677880126953125,-0.0243657949715852,0.3953422568723559,0.4727930146910249
2024-12-04 21:48:45.450915000,0.6879150390625,0.0242231716305017,0.459845124182105,0.8954245527662337
2024-12-04 21:48:45.460949200,0.69794921875,0.124804191276431,0.4701169273495674,1.1013169815808534
2024-12-04 21:48:45.470984200,0.707984130859375,0.2060083102792501,0.4081345184281468,1.1719009223699568
2024-12-04 21:48:45.481019100,0.71801904296875,0.2726853067576885,0.2417991701066494,1.1843464163146913
2024-12-04 21:48:45.491053000,0.728052978515625,0.3278121506959199,-0.033051497991383,1.1586118172079325
2024-12-04 21:48:45.501088300,0.738088134765625,0.2560474756896496,-0.2675046892493963,1.1087662746734916
2024-12-04 21:48:45.511123200,0.748123291015625,0.1014654012650251,-0.3337307270899415,0.955844534676522
2024-12-04 21:48:45.521157400,0.758157470703125,-0.0559001663982868,-0.3097778968334198,0.7213179859213531
2024-12-04 21:48:45.531192000,0.768192138671875,-0.1506599325448274,-0.2886553215667605,0.4903204880751669
2024-12-04 21:48:45.541227000,0.77822705078125,-0.2679968566805124,-0.2351367896080017,0.2777012352235615
2024-12-04 21:48:45.551261200,0.78826123046875,-0.3899608560949564,-0.1499219736590981,0.0539496168524026
2024-12-04 21:48:45.561296100,0.798296142578125,-0.4959937114059924,-0.0814212688848376,-0.1262198302280157
2024-12-04 21:48:45.571331300,0.808331298828125,-0.4986030171215534,0.0040361236482858,-0.2480682404387742
2024-12-04 21:48:45.581365000,0.818364990234375,-0.3597849135398864,0.061119946873188,-0.3279424990773201
2024-12-04 21:48:45.591400200,0.828400146484375,-0.1564794324785471,0.0521677018716931,-0.3306256006814539
2024-12-04 21:48:45.601435100,0.83843505859375,-0.0356055663883686,0.0378548066198825,-0.2312020805075764
2024-12-04 21:48:45.611469300,0.84846923828125,-0.0470586882948875,0.0552428715333342,-0.092521047309041
2024-12-04 21:48:45.621504000,0.85850390625,-0.1313718792289495,0.0895887932494282,-0.0096546941824257
2024-12-04 21:48:45.631539200,0.868539306640625,-0.197162740522623,0.0791316966429352,0.0870467075511813
2024-12-04 21:48:45.641573000,0.878572998046875,-0.241115279495716,0.0865182997629046,0.1388641346804797
2024-12-04 21:48:45.651608300,0.8886083984375,-0.2214057858973741,0.1179383971601724,0.0824067727908492
2024-12-04 21:48:45.661642000,0.89864208984375,-0.1368394969850778,0.1552037134543061,0.0308620251230895
2024-12-04 21:48:45.671677200,0.90867724609375,-0.022109540477395,0.154312317572534,0.0471922515466809
2024-12-04 21:48:45.681712000,0.918712158203125,0.0360457113713026,0.1973573863118886,0.1003473570205271
2024-12-04 21:48:45.691746300,0.928746337890625,0.0541173746347427,0.241122878280282,0.2982986175723374
2024-12-04 21:48:45.701781000,0.938781005859375,0.1345908412754535,0.1708633471399545,0.7688926609143615
2024-12-04 21:48:45.711816200,0.948816162109375,0.2435802083045244,0.1816615122690796,0.8305271331809461
2024-12-04 21:48:45.721850000,0.95885009765625,0.2187783600032329,0.2752399596765637,0.460764577114582
2024-12-04 21:48:45.731885300,0.96888525390625,0.1295335578858852,0.3302314867973327,0.138636171143502
2024-12-04 21:48:45.741920300,0.978920166015625,0.0688432346016168,0.3200514535665512,0.0707630967482924
2024-12-04 21:48:45.751954200,0.9889541015625,0.0268260476052761,0.2743769131064414,0.1277399524673819
2024-12-04 21:48:45.761989000,0.998989013671875,-0.0475368272006511,0.2820505164742469,0.1569631243422627
2024-12-04 21:48:45.772024000,1.009024169921875,-0.125751701259613,0.2844420877858996,0.0707863314934074
2024-12-04 21:48:45.782058200,1.019058349609375,-0.1357768361896276,0.2395218728244304,-0.0192955059699714
2024-12-04 21:48:45.792093000,1.029093017578125,-0.0568599513411521,0.1571419880405068,-0.05689663008973
2024-12-04 21:48:45.802128100,1.039128173828125,0.0374818816542625,0.0811021199330687,-0.0325146146357059
2024-12-04 21:48:45.812162000,1.049162109375,0.0494026210725307,0.030457389844954,-0.011440700816363
2024-12-04 21:48:45.822197200,1.059197265625,-0.0440542457818984,-0.0117266781508922,-0.0252013690128922
2024-12-04 21:48:45.832232200,1.069232177734375,-0.1694254232913255,-0.0389630601227283,-0.0340855172142386
2024-12-04 21:48:45.842266000,1.07926611328125,-0.214936297622323,-0.0736895055890083,-0.0558452213406562
2024-12-04 21:48:45.852301000,1.089301025390625,-0.2401227613270282,-0.0911243322536349,-0.0417155737012624
2024-12-04 21:48:45.862336300,1.099336181640625,-0.3267874838232993,-0.081493165077269,-0.1014141094692051
2024-12-04 21:48:45.872370200,1.1093701171875,-0.283715819337964,-0.0798696555286645,-0.1517097338587045
2024-12-04 21:48:45.882405000,1.119405029296875,-0.0965109937280416,-0.1122270337760448,-0.1573842723637819
2024-12-04 21:48:45.892440000,1.129440185546875,0.0461842435479164,-0.1449739958629012,-0.1829581279508769
2024-12-04 21:48:45.902473200,1.13947314453125,0.0587368511289358,-0.1472723359331488,-0.2089322349019348
2024-12-04 21:48:45.912508200,1.149508056640625,0.0001169043779373,-0.1398611828938126,-0.1660221907190978
2024-12-04 21:48:45.922542300,1.159542236328125,0.0056119946628808,-0.1343044255495071,-0.0810303698711097
2024-12-04 21:48:45.932577000,1.169576904296875,0.0506704490512609,-0.1280807287290692,-0.0699437431894242
2024-12-04 21:48:45.942612200,1.1796123046875,0.0587578939169645,-0.1063639869615435,-0.0924227015011012
2024-12-04 21:48:45.952646100,1.189646240234375,0.0289554608494043,-0.1119005783006548,-0.0833709416478872
2024-12-04 21:48:45.962681300,1.199681396484375,0.0164122056186199,-0.1423204126141965,-0.0398379432611167
2024-12-04 21:48:45.972716300,1.20971630859375,0.0203764330744743,-0.1759438652746379,-0.032286943359673
2024-12-04 21:48:45.982750200,1.219750244140625,-0.014351181435585,-0.1832883828185498,0.0027009295217692
2024-12-04 21:48:45.992785200,1.22978515625,-0.0584194557428359,-0.1358718209967017,0.0637710459038615
2024-12-04 21:48:46.002820400,1.2398203125,-0.0623094489187002,-0.0957785878002643,0.0826945036910474
2024-12-04 21:48:46.012854300,1.249854248046875,-0.0461181925743818,-0.0646292701683938,0.1116357898846268
2024-12-04 21:48:46.022889200,1.25988916015625,-0.0198410110235214,-0.0057847208812832,0.1301876378804445
2024-12-04 21:48:46.032924200,1.269924072265625,-0.0580722497403621,0.0163461546450853,0.1570597165845334
2024-12-04 21:48:46.042958300,1.279958251953125,-0.0517863013386726,-0.0148879186607897,0.1065567330546677
2024-12-04 21:48:46.052993300,1.2899931640625,0.0259270529389381,-0.0192126499921083,-0.0194793381042778
2024-12-04 21:48:46.063028200,1.3000283203125,0.0063239423245191,0.0165672500498592,-0.0962704629704356
2024-12-04 21:48:46.073062100,1.310062255859375,-0.1062760164171457,0.036304070046544,-0.1001822295866906
2024-12-04 21:48:46.083097300,1.320097412109375,-0.1806546733140945,0.0635927667275071,-0.0555139435596764
2024-12-04 21:48:46.093132300,1.33013232421875,-0.2325859360814094,0.0699191932700574,-0.1017607309497892
2024-12-04 21:48:46.103166500,1.34016650390625,-0.2317296115130186,0.0025542145274579,-0.1978232502579689
2024-12-04 21:48:46.113201200,1.350201171875,-0.1485188288629055,-0.0545377920038998,-0.209411250590533
2024-12-04 21:48:46.123236000,1.360236083984375,-0.0692804569751024,-0.0359679699599742,-0.2028634363822639
2024-12-04 21:48:46.133270300,1.370270263671875,-0.0385819518506526,-0.0014823475122451,-0.1843785161428153
2024-12-04 21:48:46.143305200,1.38030517578125,-0.0224035549879074,-0.0038686581268906,-0.1201465747289359
2024-12-04 21:48:46.153340400,1.39034033203125,0.0256090730309486,-0.0368698872357606,-0.0693731036946177
2024-12-04 21:48:46.163374000,1.4003740234375,0.0667296034485101,-0.0384361136391758,-0.0614934563606977
2024-12-04 21:48:46.173409300,1.4104091796875,0.0266506910383701,-0.014037877702713,-0.0248383809193968
2024-12-04 21:48:46.183444200,1.4204443359375,-0.0319751009315252,-0.0168318923354148,0.0170414434328675
2024-12-04 21:48:46.193478400,1.430478515625,-0.0297264452219009,-0.022155279315263,-0.0046748599432408
2024-12-04 21:48:46.203513000,1.44051318359375,0.0331084888756275,-0.0045915655739605,-0.0636078181661665
2024-12-04 21:48:46.213548300,1.45054833984375,-0.0151893858253955,0.016508943991363,-0.0624704846993088
2024-12-04 21:48:46.223582200,1.460582275390625,-0.0979348890513181,0.0108865740649402,-0.0866378344893455
2024-12-04 21:48:46.233617400,1.470617431640625,-0.0898632262766361,0.0085889646470546,-0.1129464340917766
2024-12-04 21:48:46.243652400,1.48065234375,-0.1145265428900718,0.0611276917882263,-0.2025539320416748
2024-12-04 21:48:46.253686300,1.490686279296875,-0.1243167000204324,0.0206711782373487,-0.3131407973952591
2024-12-04 21:48:46.263721200,1.50072119140625,-0.0182727387934923,-0.0131400520801544,-0.3671868603594601
2024-12-04 21:48:46.273756200,1.510756103515625,0.0770107589662075,0.0405630426652729,-0.3482268699541688
2024-12-04 21:48:46.283790300,1.520790283203125,0.1001250925719738,0.0647005818389356,-0.3159095314562321
2024-12-04 21:48:46.293825000,1.530824951171875,0.028409517404437,0.1181067394644021,-0.4115567479617893
2024-12-04 21:48:46.303860200,1.540860107421875,-0.1206038169771432,0.3286564925655722,-0.543671700643003
2024-12-04 21:48:46.313894100,1.55089404296875,-0.3335293592989444,0.5656669670909643,-0.5853356902875005
2024-12-04 21:48:46.323929300,1.560929443359375,-0.36046821962893,0.5772684114269911,-0.4829720250084996
2024-12-04 21:48:46.333964300,1.57096435546875,-0.1126075575262308,0.3103073275350034,-0.2774472604624927
2024-12-04 21:48:46.343998200,1.580998291015625,0.1538841552883386,0.1622575774885714,-0.2357040681019425
2024-12-04 21:48:46.354033200,1.591033203125,0.4796650924175977,0.0837612561397254,-0.0995887937381863
2024-12-04 21:48:46.364068400,1.601068359375,0.7318085464060307,0.0280848154947161,-0.1559827350027859
2024-12-04 21:48:46.374102300,1.611102294921875,0.6289052212923765,0.1975401955328881,-0.2840941511310637
2024-12-04 21:48:46.384137200,1.62113720703125,0.4534416868805885,0.33890871424973,-0.0016560966439545
2024-12-04 21:48:46.394171100,1.631171142578125,0.4260831398338079,0.3949333838105201,0.1588053912080824
2024-12-04 21:48:46.404206300,1.641206298828125,0.2358463991820812,0.4726499529585242,0.1404777073569595
2024-12-04 21:48:46.414241300,1.6512412109375,-0.0803273361682891,0.5513251380056142,0.0085968556925654
2024-12-04 21:48:46.424275200,1.661275146484375,-0.2438286301076412,0.7559177362680435,-0.7594609618328512
2024-12-04 21:48:46.434310100,1.67131005859375,0.0780266580104827,0.2703627090290189,-0.1916257107920944
2024-12-04 21:48:46.444345300,1.681345458984375,0.4515700477898121,-0.2307933535762131,0.0316425079762935
2024-12-04 21:48:46.454379300,1.691379150390625,0.6505003825068474,-0.1892633655749261,-0.3341279097139835
2024-12-04 21:48:46.464414200,1.701414306640625,0.9092565326333044,-0.4153821514688432,-0.3968174439914524
2024-12-04 21:48:46.474449200,1.71144921875,0.8585720550566911,-0.552223694280535,-0.2456133215673267
2024-12-04 21:48:46.484484000,1.721484130859375,0.4582072938472032,-0.46722120590806,-0.0919312647223472
2024-12-04 21:48:46.494518300,1.731518310546875,-0.1498486161619424,-0.396208372182399,-0.5070109261132777
2024-12-04 21:48:46.504553200,1.74155322265625,-0.7726601967543363,-0.495949872264266,-0.9458971411578356
2024-12-04 21:48:46.514587100,1.751587158203125,-1.0796341420829296,-0.5875637416005134,-1.238492870913446
2024-12-04 21:48:46.524622000,1.7616220703125,-0.7389420515477657,-0.5808180667325854,-1.1650133548133077
2024-12-04 21:48:46.534657300,1.7716572265625,0.0747790543913841,-0.4573895477235317,-1.1239322796232998
2024-12-04 21:48:46.544691200,1.781691162109375,0.7236258244723082,-0.5056413913257419,-0.9220930717222392
2024-12-04 21:48:46.554726100,1.79172607421875,0.73134326698184,-0.8156742858335375,-1.036517031020671
2024-12-04 21:48:46.564761000,1.801760986328125,0.3244780378371477,-1.2311118207514284,-1.027377300623059
2024-12-04 21:48:46.574795300,1.811795166015625,0.048139469268918,-1.5702977445073425,-1.0074551871873438
2024-12-04 21:48:46.584830200,1.821830322265625,0.0044324294894933,-1.753099366722256,-0.9653387776002288
2024-12-04 21:48:46.594865400,1.831865478515625,-0.1180570551037788,-2.1723269415728748,-0.0273952257953584
2024-12-04 21:48:46.604899000,1.841899169921875,-0.2503296825647354,-1.4461979021079838,0.251709592615813
2024-12-04 21:48:46.614934300,1.851934326171875,0.0349947410136461,-0.0306694251604378,0.0619528905659913
2024-12-04 21:48:46.624969200,1.86196923828125,0.6238479379028081,1.201989917293936,-0.3476587877426296
2024-12-04 21:48:46.635003400,1.87200341796875,1.7194295907020567,2.4119407304644582,-0.9006650107029824
2024-12-04 21:48:46.645038000,1.8820380859375,2.3647633842259643,3.0399627391815183,-1.667076303130388
2024-12-04 21:48:46.655073300,1.8920732421875,2.641024795904756,2.52436971655339,-2.4316624990224835
2024-12-04 21:48:46.665107200,1.902107177734375,1.7807681487619875,0.5971703588575125,-2.273997656151652
2024-12-04 21:48:46.675142400,1.912142333984375,-0.6130097330242396,-2.4573867228657007,-1.11446894329451
2024-12-04 21:48:46.685177300,1.92217724609375,-0.2653168238162994,-2.378974572668969,-1.3683406093150376
2024-12-04 21:48:46.695211300,1.932211181640625,1.6667618303537368,0.5854568324491382,-2.3740948378033933
2024-12-04 21:48:46.705246200,1.94224609375,4.698460599058866,2.848314085905254,-3.6252456763684746
2024-12-04 21:48:46.715281200,1.95228125,0.7680681927889585,0.9352107658401132,-0.961141179779917
2024-12-04 21:48:46.725315300,1.9623154296875,1.382057584500313,0.5298129788994789,-0.6788759976416826
2024-12-04 21:48:46.735350000,1.97235009765625,1.0369529382199048,2.082448956118524,-1.07424850352183
2024-12-04 21:48:46.745385200,1.98238525390625,0.4028548244595527,2.198058618070185,-1.0240078241899608
2024-12-04 21:48:46.755419100,1.992419189453125,1.4024725960195064,2.636483937604725,-1.489043210491538
2024-12-04 21:48:46.765454300,2.002454345703125,2.147858416879177,3.2907384119480847,-1.1296990264564752
2024-12-04 21:48:46.775489300,2.0124892578125,2.800769367659092,3.826775087668001,-0.8220379756465553
2024-12-04 21:48:46.785523200,2.022523193359375,3.7087820377111433,5.177465181741118,-1.0193161592423916
2024-12-04 21:48:46.795558100,2.03255810546875,4.221621085456014,6.2956742614120245,-0.3155447897970676
2024-12-04 21:48:46.805593300,2.04259326171875,3.411031847801804,5.33673219911158,1.881266750821471
2024-12-04 21:48:46.815628300,2.052628173828125,0.2377893499433994,2.4801544349908826,6.774647864434122
2024-12-04 21:48:46.825662200,2.062662109375,-1.702024866914749,0.9160095140248536,8.865784861660003
2024-12-04 21:48:46.835697200,2.072697265625,-1.2613678428053856,1.5391174472153186,6.997037985193729
2024-12-04 21:48:46.845731300,2.0827314453125,-2.395007131320238,0.8257014665901661,4.049001834559441
2024-12-04 21:48:46.855766300,2.092766357421875,-3.5530920020446177,0.8056459360331296,2.0066969650417565
2024-12-04 21:48:46.865801200,2.10280126953125,-3.64198404520154,1.8281383872240784,1.8789292477846145
2024-12-04 21:48:46.875836200,2.112836181640625,-1.9871891314953565,2.873114472901821,2.1837176657676696
2024-12-04 21:48:46.885870300,2.122870361328125,-1.842853141275048,3.093545860809088,3.3853163917869327
2024-12-04 21:48:46.895905300,2.1329052734375,-2.40666015971303,2.5417759016454218,3.0258313379764554
2024-12-04 21:48:46.905941200,2.142941162109375,-4.148934034907818,1.7326415389746426,0.6912070714265107
2024-12-04 21:48:46.915975400,2.152975341796875,-5.517664520323276,1.0545707202360033,-2.1825527136415244
2024-12-04 21:48:46.926010400,2.16301025390625,-4.49350851983428,0.9671338443234564,-3.699661158144474
2024-12-04 21:48:46.936045300,2.17304541015625,-4.378291072070598,1.229921149662137,-3.827956114146114
2024-12-04 21:48:46.946079200,2.183079345703125,-3.639060266709328,1.574145213715732,-3.472780740228296
2024-12-04 21:48:46.956114200,2.1931142578125,-2.2014403694629667,1.864884940341115,-3.3393706331700086
2024-12-04 21:48:46.966149400,2.2031494140625,-0.7699906852841377,1.7340069821089503,-2.977415389853716
2024-12-04 21:48:46.976183300,2.213183349609375,0.2419745266735553,1.1735709014087914,-2.54274913059175
2024-12-04 21:48:46.986218500,2.223218505859375,0.4966983525440097,0.7060866606503725,-2.3991502224743364
2024-12-04 21:48:46.996253200,2.233253173828125,0.3854147370979189,0.4927610130950808,-2.1484686577320096
2024-12-04 21:48:47.006287400,2.243287353515625,0.0649006344556808,0.304584273713082,-2.3362433921843766
2024-12-04 21:48:47.016322300,2.253322265625,0.3935115343138575,-0.3905113295845687,-3.4576159043222665
2024-12-04 21:48:47.026357500,2.263357421875,0.7635245580099522,-0.8220760426346212,-4.419470639199019
2024-12-04 21:48:47.036391200,2.27339111328125,1.2058800566002723,-0.5946270310502499,-4.716943181210756
2024-12-04 21:48:47.046426400,2.28342626953125,1.4046002556979655,-0.563440157886967,-4.254000091013312
2024-12-04 21:48:47.056461300,2.29346142578125,1.0665968197248876,-0.7855988810434937,-3.657597209396958
2024-12-04 21:48:47.066495500,2.30349560546875,0.9896060806334018,-0.9222864754024892,-3.4269852037370203
2024-12-04 21:48:47.076530400,2.313530517578125,1.086350152464956,-0.9911403044633568,-3.888544146099687
2024-12-04 21:48:47.086565400,2.3235654296875,0.3897612418696284,-1.2796667389534413,-4.531212519806624
2024-12-04 21:48:47.096599300,2.333599365234375,0.2293839251697063,-1.3098936810433863,-5.035467863601446
2024-12-04 21:48:47.106634500,2.343634521484375,0.2720335648506879,-0.9932660644456744,-5.304569466653466
2024-12-04 21:48:47.116669400,2.35366943359375,0.1350713182687759,-0.7236766778767109,-5.432682636347413
2024-12-04 21:48:47.126703400,2.363703369140625,0.0038169279396533,-0.1962623210841789,-5.482046094453335
2024-12-04 21:48:47.136738300,2.37373828125,0.5524702163875103,0.4806223931424319,-4.715430438560247
2024-12-04 21:48:47.146773200,2.383773193359375,1.9654910944283008,0.8655960354093462,-3.894050926822424
2024-12-04 21:48:47.156807400,2.393807373046875,3.863234056015312,0.9575259118922054,-3.226736187636852
2024-12-04 21:48:47.166842400,2.40384228515625,5.765780033969879,1.023781906479597,-2.459884969422221
2024-12-04 21:48:47.176877300,2.413877197265625,6.897670432990789,0.8810119965322315,-2.278915238809585
2024-12-04 21:48:47.186911200,2.4239111328125,6.554178482604026,1.29160559855029,-2.6683506097257137
2024-12-04 21:48:47.196946400,2.433946533203125,4.308550304107368,2.407518822368979,-3.1791034988462923
2024-12-04 21:48:47.206981400,2.4439814453125,1.8081950848698616,2.986379617553949,-2.6624627207309004
2024-12-04 21:48:47.217015300,2.454015380859375,0.5729457259222864,3.178235483840108,-1.6165841332554816
2024-12-04 21:48:47.227050200,2.46405029296875,-0.6379290702253579,3.3653178521141407,-1.6238573391288518
2024-12-04 21:48:47.237085400,2.47408544921875,-1.272952482137084,3.498812714846432,-1.672047077280283
2024-12-04 21:48:47.247119400,2.484119384765625,-1.552642114698887,3.3183202463567256,-1.3623130195885895
2024-12-04 21:48:47.257154600,2.494154541015625,-2.6594410348221658,3.224757288779318,-1.4959393997460604
2024-12-04 21:48:47.267189200,2.504189208984375,-4.111659366263449,3.3236057855442165,-1.1781143900573252
2024-12-04 21:48:47.277223400,2.514223388671875,-3.705541740615666,2.2980928174883126,-1.847383185920119
2024-12-04 21:48:47.287258400,2.52425830078125,-3.1070801729038355,2.198800960870087,-3.0659675335317846
2024-12-04 21:48:47.297293300,2.534293212890625,-2.230838021121919,1.0889150345169007,-1.989694976836443
2024-12-04 21:48:47.307327200,2.5443271484375,0.106467447336018,-0.8958806259706615,-1.2205635387301443
2024-12-04 21:48:47.317362400,2.554362548828125,0.6719473674222827,-0.5346839824693277,-1.4794137968808412
2024-12-04 21:48:47.327397400,2.5643974609375,0.6485086241677404,-0.9330617711126804,-0.1250356619447469
2024-12-04 21:48:47.337431600,2.574431640625,1.045460654324293,-1.9404395091496407,-1.015908396625519
2024-12-04 21:48:47.347466500,2.584466552734375,0.1702650889858603,-2.496804541018605,-1.482179754462838
2024-12-04 21:48:47.357501200,2.594501220703125,3.3131641787678,-3.661270344951749,1.0352981567502022
2024-12-04 21:48:47.367535400,2.604535400390625,5.286622891074419,-3.4981080737084147,0.4448474615365266
2024-12-04 21:48:47.377570300,2.6145703125,4.205813275471329,-3.3439100301653144,0.4078741139262914
2024-12-04 21:48:47.387605500,2.62460546875,1.9874761317431928,-3.8209433127745984,0.2352636308580636
2024-12-04 21:48:47.397640400,2.634640380859375,0.9391749932959677,-4.31398197376728,0.1322165133595466
2024-12-04 21:48:47.407674400,2.64467431640625,1.870390844281017,-4.270435969768465,1.1003507668972017
2024-12-04 21:48:47.417709300,2.654709228515625,1.7363059067010878,-3.652620005506277,1.8766198017984628
2024-12-04 21:48:47.427744500,2.66474462890625,1.6307830467388034,-3.635033203150332,3.654343760558963
2024-12-04 21:48:47.437778400,2.6747783203125,0.877030379550159,-3.409592754909396,1.5933458810091017
2024-12-04 21:48:47.447813400,2.6848134765625,0.1172784719467163,-3.152551884268224,1.722996927794814
2024-12-04 21:48:47.457848300,2.694848388671875,1.9254335170671344,-2.6867788313418624,4.316196727207303
2024-12-04 21:48:47.467882500,2.704882568359375,4.225535336290299,-1.8986003090687096,6.102907125499844
2024-12-04 21:48:47.477917400,2.71491748046875,3.7420071387037632,-1.1509022657439112,6.235695885789394
2024-12-04 21:48:47.487952400,2.724952392578125,1.2704124422654508,-0.351964741308242,4.458711931741237
2024-12-04 21:48:47.497986300,2.734986328125,0.1207733283251523,0.1474535377189517,3.1030425879508257
2024-12-04 21:48:47.508021200,2.745021240234375,-0.0179261173129081,-0.3297401961490511,1.8366338283687829
2024-12-04 21:48:47.518056400,2.755056396484375,0.6059501699015498,-1.1944780803591013,1.4118261152982712
2024-12-04 21:48:47.528090400,2.76509033203125,1.1048898716315627,-1.1219564495056866,2.3447113608002663
2024-12-04 21:48:47.538125300,2.775125244140625,1.170261338469386,-1.2975716673478483,2.730059170141816
2024-12-04 21:48:47.548160300,2.78516015625,1.35691291411072,-1.2742480749055742,1.620831853827834
2024-12-04 21:48:47.558194400,2.7951943359375,1.988385063281655,-2.5240593354299663,0.6327876156836748
2024-12-04 21:48:47.568229400,2.8052294921875,1.0494210823878645,-4.394188021643459,-0.4818506197631358
2024-12-04 21:48:47.578264600,2.8152646484375,-3.014413871905208,-4.942413147807121,-2.236951243305206
2024-12-04 21:48:47.588298200,2.82529833984375,-1.7189727868452669,-1.26443658272624,-3.0698218708723783
2024-12-04 21:48:47.598333400,2.83533349609375,-0.6981967841833829,-5.9087745464533565,-2.624270060458779
2024-12-04 21:48:47.608368400,2.845368408203125,-6.147240772745013,-7.520182738375663,-3.135146868219972
2024-12-04 21:48:47.618402300,2.85540234375,-6.299643165042996,-5.638570535117387,-1.275880352282524
2024-12-04 21:48:47.628437200,2.865437255859375,-5.525446260240674,-5.23995817053318,-1.892899320948124
2024-12-04 21:48:47.638472200,2.87547216796875,-6.751445852544904,-4.192240092670917,-2.5728473317354914
2024-12-04 21:48:47.648507400,2.88550732421875,-4.359832455316186,-1.151428627705574,-1.6082535272836684
2024-12-04 21:48:47.658541600,2.89554150390625,-1.669955950219929,2.512321259102225,-0.3377905238747596
2024-12-04 21:48:47.668576500,2.905576416015625,-0.2601730311870575,6.671831633082032,2.794003526785969
2024-12-04 21:48:47.678611200,2.915611083984375,1.2050222707271576,10.529628758740424,3.87669471835196
2024-12-04 21:48:47.688645400,2.925645263671875,6.116731652712821,14.915240382957458,4.194382949918508
2024-12-04 21:48:47.698680300,2.935680419921875,8.094148747256398,14.480886842906472,4.107017970198393
2024-12-04 21:48:47.708715500,2.945715576171875,4.081232956078648,11.487648445498944,2.5787854896128177
2024-12-04 21:48:47.718749200,2.955749267578125,0.3788134391367435,9.276530147108437,0.7776730564802885
2024-12-04 21:48:47.728784400,2.965784423828125,-0.6581424216926097,7.714301288896799,-0.6447118622332811
2024-12-04 21:48:47.738819300,2.9758193359375,-0.0865057325422763,5.975475508329272,-0.6862345437109469
2024-12-04 21:48:47.748853500,2.985853515625,0.2034755769312381,3.4475627123415467,0.5789268461585044
2024-12-04 21:48:47.758888200,2.99588818359375,0.3499088316917419,1.5596642684206363,2.324589779269695
2024-12-04 21:48:47.768923400,3.00592333984375,-2.5814672760427,-3.2950080520913003,16.2283103559494
2024-12-04 21:48:47.778957300,3.015957275390625,-0.65622109824121,0.4023644105941057,5.0690322795510285
2024-12-04 21:48:47.788992500,3.025992431640625,1.8870792364925144,2.0709775679029523,-11.365788490980863
2024-12-04 21:48:47.799027500,3.03602734375,1.5543401507884262,-3.962534680461884,-11.811980937385558
2024-12-04 21:48:47.809062100,3.046062255859375,4.150883415409923,-4.638248414680361,-8.569411805322765
2024-12-04 21:48:47.819096300,3.056096435546875,2.392214285731316,-3.824092424455285,-4.347303813132643
2024-12-04 21:48:47.829131300,3.06613134765625,1.0786281799107789,-1.6533597663365305,-0.4168932866841554
2024-12-04 21:48:47.839166500,3.07616650390625,0.8688397665709257,0.2166116834886371,3.0121582019329067
2024-12-04 21:48:47.849200000,3.0862001953125,-0.1878998221367597,0.9134056151367724,3.674020520931482
2024-12-04 21:48:47.859235300,3.0962353515625,-0.5061953719466924,1.5115373663723468,1.6485001974761484
2024-12-04 21:48:47.869270300,3.106270263671875,-0.9706856915861368,0.6328457756116986,-0.5322568649202585
2024-12-04 21:48:47.879304400,3.116304443359375,-2.827327704238892,0.224483658972755,-1.467241128528118
2024-12-04 21:48:47.889339400,3.12633935546875,-2.425370120880008,-0.4405523581584915,-4.564216379263997
2024-12-04 21:48:47.899374300,3.136374267578125,-1.7476327718794344,-0.4705183842899277,-4.373026283410192
2024-12-04 21:48:47.909407700,3.14640771484375,-1.866009560456872,-0.5757924936555325,-4.629384140223264
2024-12-04 21:48:47.919443000,3.15644287109375,-1.9376883107453584,0.4087857488784939,-4.772022094354033
2024-12-04 21:48:47.929478000,3.166477783203125,-1.5493717147260904,1.799883475859463,-2.756215940183401
2024-12-04 21:48:47.939512000,3.176511962890625,0.0675122782588005,2.888469862943888,-1.7359411650419234
2024-12-04 21:48:47.949546800,3.186546630859375,1.2031529697239398,4.314462158499658,-1.8899182593107224
2024-12-04 21:48:47.959582000,3.19658203125,1.852130088186264,4.348991035567224,-3.468722989270091
2024-12-04 21:48:47.969616000,3.206615966796875,2.2418594736129043,2.4807518163621425,-6.029020051512122
2024-12-04 21:48:47.979651000,3.216651123046875,2.182812241360545,1.0230846449304372,-6.570104950532317
2024-12-04 21:48:47.989686000,3.22668603515625,2.460748892775178,1.7407675622850656,-0.3664607380419969
2024-12-04 21:48:47.999720000,3.236719970703125,1.81114458232522,2.7062922178462148,2.4371926606208083
2024-12-04 21:48:48.009755000,3.2467548828125,1.2892086204111577,3.281994549000263,-0.0022346271842718
2024-12-04 21:48:48.019789800,3.256789794921875,2.4456033460915085,2.965068533977866,-0.5657879631221294
2024-12-04 21:48:48.029825000,3.266824951171875,3.520717380401492,2.31474862260446,0.5064817876726389
2024-12-04 21:48:48.039859000,3.27685888671875,1.3766484189331532,1.201192191044986,1.5498317334532736
2024-12-04 21:48:48.049894000,3.286893798828125,-0.5362018031537532,-0.3756308635778725,1.545869844084978
2024-12-04 21:48:48.059928800,3.2969287109375,-0.3495663018643856,-1.3735513297006487,1.4268483278632162
2024-12-04 21:48:48.069963000,3.306962890625,-0.0684592037200927,-1.1830662403110417,1.9739350976467127
2024-12-04 21:48:48.079998000,3.316998046875,0.897970583987236,-1.1007170429263264,1.14317400957942
2024-12-04 21:48:48.090033000,3.327032958984375,0.2032411836534738,-0.9905758024483918,1.487631005606055
2024-12-04 21:48:48.100066800,3.33706689453125,-1.062678331106901,-1.6851941436231137,0.7064882271885872
2024-12-04 21:48:48.110102000,3.34710205078125,-1.4105302302688358,-2.4061922499403354,0.0573977114796638
2024-12-04 21:48:48.120137000,3.357136962890625,-0.946889805456996,-2.0524824185304342,-0.3057218994408845
2024-12-04 21:48:48.130171000,3.3671708984375,-1.7560656691819427,-1.968771869664639,-7.825771951347589
2024-12-04 21:48:48.140205800,3.377205810546875,1.8613088354200125,-5.469765874072909,-5.457795450294017
2024-12-04 21:48:48.150241000,3.387240966796875,-1.2555097644269466,-3.395277229309082,2.8359891496002674
2024-12-04 21:48:48.160276000,3.39727587890625,-2.1509791792482136,-1.964044987273216,3.2220722874790426
2024-12-04 21:48:48.170310100,3.40731005859375,-3.314126301798224,-1.0383470229268073,6.029851241639256
2024-12-04 21:48:48.180344800,3.4173447265625,-4.608378177073598,-0.2564798757575452,4.586228889107704
2024-12-04 21:48:48.190379800,3.4273798828125,-4.667185170829296,0.1603632881745696,4.748685057908296
2024-12-04 21:48:48.200414000,3.4374140625,-1.7172960858047008,0.0162910634569823,4.396839705196022
2024-12-04 21:48:48.210449000,3.447448974609375,1.8822668677747247,-1.5883886969931422,2.5213398473381994
2024-12-04 21:48:48.220484000,3.457484130859375,4.270974022167921,-2.543338913178444,2.455834817248583
2024-12-04 21:48:48.230517800,3.467517822265625,3.3447739535182714,-2.060684721947461,1.84976861975193
2024-12-04 21:48:48.240553000,3.477552978515625,1.437643570382893,-0.8074456789314747,2.387764905107021
2024-12-04 21:48:48.250588000,3.487587890625,-0.9092375356718896,0.201413091443479,2.493801852071285
2024-12-04 21:48:48.260621800,3.497621826171875,-0.8323995029240846,0.5036950795635581,4.118914159697294
2024-12-04 21:48:48.270656800,3.50765673828125,-0.383816361990571,1.1972060440182686,5.460629796937107
2024-12-04 21:48:48.280692000,3.51769189453125,-0.5831622917711734,2.0266607256621123,6.052278177502751
2024-12-04 21:48:48.290726000,3.527725830078125,-1.0739175180017948,3.352580243355036,6.150463241922855
2024-12-04 21:48:48.300761000,3.537760986328125,-1.4592188578531144,4.050368446737528,6.421987103685736
2024-12-04 21:48:48.310795800,3.547795654296875,0.3010404636263847,3.165668555472791,4.674292372485995
2024-12-04 21:48:48.320830700,3.557830810546875,2.308303830379248,1.2466187480933963,0.0192751938343048
2024-12-04 21:48:48.330865000,3.567864990234375,0.9534259292274712,0.2118257643863558,0.1622422337889671
2024-12-04 21:48:48.340899800,3.57789990234375,1.304295714905858,-1.5093429250679908,-1.6681442246228455
2024-12-04 21:48:48.350935000,3.58793505859375,1.0671545997381209,-2.331883881800622,-3.0366069990128275
2024-12-04 21:48:48.360968700,3.59796875,0.6797241389036178,-1.748952330045402,-3.1014445051044226
2024-12-04 21:48:48.371004000,3.60800390625,1.2316449047148228,-0.866902222637087,-2.683601370349526
2024-12-04 21:48:48.381038800,3.618038818359375,1.7042933963686226,-0.4109253181904554,-1.562873001334071
2024-12-04 21:48:48.391073000,3.628072998046875,2.2026754642158743,-0.3576491436202079,-0.3089917148917913
2024-12-04 21:48:48.401107700,3.638107666015625,2.6423873164296148,1.1642717426657676,0.5705629224389791
2024-12-04 21:48:48.411143000,3.648142822265625,2.40688403159678,2.178791461411864,3.1064258006483314
2024-12-04 21:48:48.421176800,3.6581767578125,-0.0436620315939188,0.6057770418243482,3.80511533678472
2024-12-04 21:48:48.431212000,3.6682119140625,-1.0059306079685688,0.2068099455183371,-0.0345177711516618
2024-12-04 21:48:48.441247000,3.6782470703125,-1.2343833897680043,1.7426386168539525,2.2524638697355983
2024-12-04 21:48:48.451281700,3.68828173828125,-2.531032973834872,1.1398165158450604,2.315561838683486
2024-12-04 21:48:48.461315800,3.69831591796875,-1.8122353001713751,0.1735153229534626,0.0648076954752206
2024-12-04 21:48:48.471350800,3.708350830078125,-1.8079291274100544,0.0904252440735697,1.3470458923518658
2024-12-04 21:48:48.481386000,3.718385986328125,-0.3093815909922123,1.9848941524259744,3.0287352427244185
2024-12-04 21:48:48.491420000,3.728419921875,0.1042874729484319,2.531224697014689,0.2118546982198953
2024-12-04 21:48:48.501454800,3.738454833984375,1.480361891385913,1.309414957615733,-1.4316852465003729
2024-12-04 21:48:48.511489800,3.74848974609375,3.2179531617224213,0.2552420045256615,-2.037590115955472
2024-12-04 21:48:48.521524000,3.75852392578125,2.252553301584721,-0.953704161646962,-3.4067303512156006
2024-12-04 21:48:48.531559000,3.768558837890625,0.8673989201128482,-0.9793547357320784,-1.010374143373966
2024-12-04 21:48:48.541593900,3.77859375,0.6241910522520542,2.1947508086964485,-1.525024624454975
2024-12-04 21:48:48.551628800,3.78862890625,2.380278348743916,-0.7431549930676817,-0.0894534764319658
2024-12-04 21:48:48.561663000,3.7986630859375,-0.5721107364028691,0.2073234845310449,3.9970086124718174
2024-12-04 21:48:48.571698000,3.808697998046875,-1.2203718155503271,4.586941713552177,-0.5638888515025376
2024-12-04 21:48:48.581732900,3.81873291015625,-2.8292729930877685,3.3262393489181994,-2.4326243297919627
2024-12-04 21:48:48.591766800,3.828766845703125,-0.5016571439951658,1.950592800503969,-0.8862371838346124
2024-12-04 21:48:48.601802000,3.838802001953125,0.1301461368262767,1.3512746159628033,-1.526155966572463
2024-12-04 21:48:48.611837000,3.8488369140625,0.7437929987102746,1.226785774245858,-1.954365597040951
2024-12-04 21:48:48.621871000,3.85887109375,1.0485650500804184,1.9356144270807505,-2.430178397944569
2024-12-04 21:48:48.631905800,3.86890576171875,0.926380101391673,2.197557682810724,-2.659241128335893
2024-12-04 21:48:48.641940700,3.878940673828125,0.8335323063462973,2.300686925634741,-2.5601395335927606
2024-12-04 21:48:48.651976000,3.888975830078125,0.6524971092820168,2.1697353176444767,-2.156849532586336
2024-12-04 21:48:48.662009900,3.899009765625,0.4243938715726137,2.128119112664461,-1.2737334033817052
2024-12-04 21:48:48.672045000,3.909045166015625,0.1122282028198242,1.6467673823341726,-0.5894906180098652
2024-12-04 21:48:48.682079700,3.919079833984375,-0.2250532024890184,1.2011024669349193,-0.0405859851494431
2024-12-04 21:48:48.692114000,3.929114013671875,-0.496224013030529,0.8760200334638356,0.0249821733042597
2024-12-04 21:48:48.702148900,3.93914892578125,-0.0791927791804075,0.8140180430591106,-0.066338266043365
2024-12-04 21:48:48.712184000,3.94918408203125,0.2566425189733505,0.6390887616544961,-0.5465019556328654
2024-12-04 21:48:48.722217700,3.9592177734375,0.6231009189277887,0.4958738844186067,-1.189871755607426
2024-12-04 21:48:48.732253000,3.9692529296875,0.8328139289438724,0.6809744312256574,-1.5805837223306298
2024-12-04 21:48:48.742288000,3.979287841796875,0.507697593203187,0.8501637076735497,-2.004223268404603
2024-12-04 21:48:48.752322800,3.98932275390625,0.1942529905557632,1.4088886005416512,-1.9414090848341583
2024-12-04 21:48:48.762357000,3.99935693359375,0.1517161635994911,2.0045441709220406,-1.5120856479048728
2024-12-04 21:48:48.772391700,4.0093916015625,-0.1255044485002756,2.213433881856501,-1.3211223465442656
2024-12-04 21:48:48.782427000,4.019427001953125,-0.7843161477565765,1.601499084587395,-1.2028735682606695
2024-12-04 21:48:48.792460800,4.029460693359375,-1.0735486846894025,-0.3951543330848217,-0.5588122788906097
2024-12-04 21:48:48.802496000,4.03949609375,-0.167884039068222,-0.8987003595665096,-0.7311018594413995
2024-12-04 21:48:48.812531000,4.049531005859375,0.6303180106997489,1.7064534970119594,-2.147854325225949
2024-12-04 21:48:48.822564900,4.05956494140625,0.4181985240638255,4.162453149433434,-2.8654017065674067
2024-12-04 21:48:48.832599800,4.069599853515625,1.0187526801407336,5.249292985111475,-0.7912830641597509
2024-12-04 21:48:48.842635000,4.079635009765625,2.13151576936543,3.6513396103069184,1.348732822525501
2024-12-04 21:48:48.852670000,4.089669921875,1.935735423111916,1.4843290414512156,1.8928642496347423
2024-12-04 21:48:48.862703900,4.099703857421875,0.5828396356880664,-0.1665931224748492,1.2992851932674645
2024-12-04 21:48:48.872738800,4.10973876953125,-0.7665548656165599,-1.067488361737132,1.1879331887602806
2024-12-04 21:48:48.882773800,4.119773681640625,-1.697535738801956,-0.7712590977847575,1.293150636035204
2024-12-04 21:48:48.892808000,4.129807861328125,-2.254525478440523,-0.5492158907666802,0.9726794957518576
2024-12-04 21:48:48.902843000,4.1398427734375,-2.449250762683153,-0.799722098942101,0.7622966236501931
2024-12-04 21:48:48.912877800,4.1498779296875,-2.235382386553288,-0.8277350182443857,0.4279822514533996
2024-12-04 21:48:48.922911700,4.159911865234375,-2.0048317556917667,-0.2122685397177934,0.5454039312630892
2024-12-04 21:48:48.932946700,4.16994677734375,-1.4880781648516654,-1.5002300826773047,1.0450023891627789
2024-12-04 21:48:48.942981600,4.179981689453125,0.2140209363430738,-2.9762960304349657,1.4089350700318812
2024-12-04 21:48:48.953016800,4.190016845703125,2.175274247071147,-3.916353944045305,1.5337082816481589
2024-12-04 21:48:48.963050800,4.20005078125,3.12683145981729,-3.947820510932803,1.262064592897892
2024-12-04 21:48:48.973085700,4.210085693359375,2.073472745719552,-3.595494681227207,1.346969319984317
2024-12-04 21:48:48.983120600,4.22012060546875,1.1830214513212445,-2.7080659495204684,1.5673878484100103
2024-12-04 21:48:48.993154800,4.23015478515625,0.5027466927975416,-1.882145579482615,2.269557043355704
2024-12-04 21:48:49.003189800,4.240189697265625,0.0679044924467802,-0.8498220546290278,2.695851780113577
2024-12-04 21:48:49.013225000,4.250224853515625,-0.5956400805503129,0.303617328377068,2.1579484337389467
2024-12-04 21:48:49.023259600,4.260259765625,-0.5288105238586663,0.4859489949926733,1.0513216553121805
2024-12-04 21:48:49.033293800,4.2702939453125,-0.1954015760689973,0.7489186711609364,0.0730903706520795
2024-12-04 21:48:49.043328800,4.280328857421875,0.2952835075348615,0.7702621957018971,-0.8839075718432664
2024-12-04 21:48:49.053363700,4.29036376953125,0.2741349210441112,0.5020058113023639,-1.3128577915459871
2024-12-04 21:48:49.063397600,4.300397705078125,0.5246756160110235,0.7001482105121016,-1.234910043990612
2024-12-04 21:48:49.073432600,4.3104326171875,0.830444277203083,0.6542100506797432,-1.310823070847988
2024-12-04 21:48:49.083467800,4.3204677734375,0.1431780523568391,0.1961512253925204,-1.246803310880065
2024-12-04 21:48:49.093501700,4.330501708984375,-0.8891600855439901,-0.1491644332900643,-1.017791726154089
2024-12-04 21:48:49.103537000,4.340536865234375,-1.2516618568271398,-0.1164493276461958,-0.8781558764487505
2024-12-04 21:48:49.113571600,4.350571533203125,-0.8197510337531566,0.1663835713773965,-0.7140186226934194
2024-12-04 21:48:49.123606800,4.360606689453125,-0.2744593306928873,0.2535088971227407,-0.2956535098910332
2024-12-04 21:48:49.133640700,4.370640625,0.0469026209503412,0.1713718811839819,0.2144669265449047
2024-12-04 21:48:49.143676000,4.380676025390625,0.6120546242564916,-0.3320820831000804,0.2581581842333078
2024-12-04 21:48:49.153710800,4.3907109375,0.3567822245925665,-0.5053966227844358,0.0272235224902629
2024-12-04 21:48:49.163744800,4.400744873046875,-0.0722357996493578,-0.6274822027519344,-0.426633174932003
2024-12-04 21:48:49.173779700,4.41077978515625,-0.2439098786503076,-0.6886509572029114,-0.6545902821689844
2024-12-04 21:48:49.183814700,4.420814697265625,-0.2946148144930601,-0.4510761267930269,-0.6818710878044366
2024-12-04 21:48:49.193849900,4.430849853515625,-0.2351186694294214,-0.0869064222976565,-0.6866629982560872
2024-12-04 21:48:49.203883500,4.440883544921875,-0.2462327686399221,0.1769324379205703,-0.720560007160902
2024-12-04 21:48:49.213918700,4.450918701171875,-0.5203899015158414,0.2700692790403962,-0.8542074301064014
2024-12-04 21:48:49.223953700,4.46095361328125,-0.6195370889663696,-0.0172533326178789,-0.7941694332510233
2024-12-04 21:48:49.233987800,4.47098779296875,-0.5482189886838197,-0.0729734662741422,-0.7329501176565885
2024-12-04 21:48:49.244022800,4.481022705078125,-0.5623047971814871,0.1099696102380752,-0.6020476095050573
2024-12-04 21:48:49.254057700,4.4910576171875,-0.719662766060233,0.3099576373144984,-0.3914169001221657
2024-12-04 21:48:49.264091600,4.501091552734375,-0.7765057662665843,0.2754838514350354,-0.1841875236153602
2024-12-04 21:48:49.274126800,4.511126953125,-0.6795061122387647,0.1186162964217364,0.2400450199156999
2024-12-04 21:48:49.284161800,4.521161865234375,-0.2174322060912847,-0.0568798250854015,0.7853712097674608
2024-12-04 21:48:49.294196700,4.53119677734375,0.53007192209661,-0.2725840383403003,1.2848650382488964
2024-12-04 21:48:49.304230700,4.541230712890625,1.126982168713212,-0.5755320891536772,1.630253762167692
2024-12-04 21:48:49.314265600,4.551265625,1.2708604782938957,-0.9129007343545557,1.5238444747596978
2024-12-04 21:48:49.324300800,4.56130078125,1.1203396619588135,-0.9392482046626508,1.1819055990338323
2024-12-04 21:48:49.334335000,4.5713349609375,0.8270113801449537,-0.5758375018410384,0.8448638476997613
2024-12-04 21:48:49.344369700,4.58136962890625,0.427767147397995,-0.3143745769739151,0.5076087458759546
2024-12-04 21:48:49.354404600,4.591404541015625,0.2242149980992078,-0.1879118048354983,0.2785322792202234
2024-12-04 21:48:49.364439800,4.601439697265625,0.3894108209967613,0.1428052735216915,-0.002886953613162
2024-12-04 21:48:49.374473700,4.6114736328125,0.3099783878415822,0.5326745058104395,-0.2193143665760755
2024-12-04 21:48:49.384509000,4.621509033203125,0.0654582683384418,0.7779819762989878,-0.2493114454329013
2024-12-04 21:48:49.394543600,4.631543701171875,-0.2229331415951251,0.3661205463021993,-0.1649421403974294
2024-12-04 21:48:49.404577800,4.641577880859375,-0.3712988257229327,-0.0967705214470624,-0.1730827767550945
2024-12-04 21:48:49.414612700,4.65161279296875,-0.3860270237773656,-0.5992782909221946,-0.0770019911378622
2024-12-04 21:48:49.424648000,4.66164794921875,-0.1632604709208011,-0.846106541237235,0.0948755014806985
2024-12-04 21:48:49.434683000,4.671682861328125,-0.0066781625896692,-1.1751415117263793,0.480453612446785
2024-12-04 21:48:49.444716800,4.681716796875,0.0827057557374238,-1.0533312415689229,0.6885445742189884
2024-12-04 21:48:49.454751700,4.691751708984375,0.1290548344582319,-0.3028171179100871,0.880980286219716
2024-12-04 21:48:49.464786700,4.70178662109375,-0.024036124625802,0.2458347092330455,0.7966799547672271
2024-12-04 21:48:49.474820900,4.71182080078125,-0.32257132743299,0.7523878085762262,0.3534469426900148
2024-12-04 21:48:49.484855600,4.72185546875,-0.4670639695197343,0.7197793781772256,0.0106231008231639
2024-12-04 21:48:49.494890800,4.731890869140625,-0.2637450444549322,0.4025967580452561,-0.2294020453482866
2024-12-04 21:48:49.504925700,4.74192578125,-0.1058306107372045,0.0944853331193327,-0.0309036723077297
2024-12-04 21:48:49.514960000,4.7519599609375,0.1656073263078928,-0.2730371889352798,0.2938625348210334
2024-12-04 21:48:49.524994800,4.761994873046875,0.1321685825645923,-0.6443395217895508,0.2752998731702566
2024-12-04 21:48:49.535029800,4.77202978515625,0.1268938570320606,-2.2141581044778227,1.2546885111719368
2024-12-04 21:48:49.545063700,4.782063720703125,0.7964034759134053,-2.43078308583945,0.8314800499916076
2024-12-04 21:48:49.555099000,4.792098876953125,0.4855693480253219,-1.0334317783564329,-0.0495335539758205
2024-12-04 21:48:49.565133800,4.8021337890625,0.2059253081709146,-0.8190969537585974,-0.1393073484033346
2024-12-04 21:48:49.575168800,4.812168701171875,-0.0042518122255802,-0.6317898368179797,-0.4838432548850774
2024-12-04 21:48:49.585202700,4.82220263671875,-0.4302648094326257,0.3779518538713455,-1.1805535999029877
2024-12-04 21:48:49.595237600,4.832237548828125,-0.6952665759503841,1.2642328768476845,-1.5427414829313757
2024-12-04 21:48:49.605272800,4.84227294921875,-0.6836468653053045,1.3395067290186882,-1.4926058714091777
2024-12-04 21:48:49.615306800,4.852306640625,-0.3693903617531061,0.7232248424559832,-1.15594932000041
2024-12-04 21:48:49.625341700,4.862341796875,-0.2026449713259935,0.0806511612951755,-0.7225859600305556
2024-12-04 21:48:49.635376600,4.872376708984375,0.1754787319809198,0.0192155726015567,-0.3583060731589794
2024-12-04 21:48:49.645411800,4.882411865234375,0.186569450315833,0.1401180802643299,-0.0469026209503412
2024-12-04 21:48:49.655445800,4.89244580078125,0.0076841247618198,0.0757876469120383,0.2474561729550361
2024-12-04 21:48:49.665481000,4.90248095703125,-0.1627659654021263,0.1701043454661965,0.2911363247275352
2024-12-04 21:48:49.675515600,4.912515625,-0.2241115377247333,0.5167991835474968,0.129615975472331
2024-12-04 21:48:49.685549800,4.9225498046875,-0.1907411830425262,0.7453250305831431,0.1412637431681156
2024-12-04 21:48:49.695584800,4.932584716796875,-0.1107043542534112,0.6561620615303516,0.1054658690780401
2024-12-04 21:48:49.705619700,4.94261962890625,-0.0274614228993654,0.455139722970128,0.2011760678172111
2024-12-04 21:48:49.715655000,4.952655029296875,0.1650432626843452,0.3457195633083582,0.2286111872315406
2024-12-04 21:48:49.725688600,4.9626884765625,0.0732762486129999,0.2240396415323018,0.2415133389025926
2024-12-04 21:48:49.735723800,4.972723876953125,0.0332207170784473,0.3001604659214615,0.3751005560934543
2024-12-04 21:48:49.745758700,4.9827587890625,0.1579518431186675,-0.1106499937176704,0.6556237168699502
2024-12-04 21:48:49.755792600,4.992792724609375,0.3381494203150272,-0.3946457990407943,0.6120414725139737
2024-12-04 21:48:49.765827600,5.00282763671875,0.3999567649304866,-0.2872857867792248,0.3232268687322736
2024-12-04 21:48:49.775862800,5.01286279296875,0.2278501397311687,-0.0795943457186222,0.0006026420682668
2024-12-04 21:48:49.785897700,5.022897705078125,0.0330839389562606,-0.2796162750646472,0.304189867568016
2024-12-04 21:48:49.795932000,5.032931884765625,-0.0395534272313118,-1.0266253132119774,0.90947952773422
2024-12-04 21:48:49.805966800,5.042966796875,-0.0986930139422416,-0.90341803573817,0.6825497177183628
2024-12-04 21:48:49.816001500,5.05300146484375,-0.0844143132209777,0.0885804929897189,-0.1666550817951559
2024-12-04 21:48:49.826035700,5.06303564453125,-0.176267252010107,0.1527633345648646,-0.1331271984636783
2024-12-04 21:48:49.836070700,5.073070556640625,-0.1231786359012126,0.3247738059133291,-0.2802107338264584
2024-12-04 21:48:49.846105900,5.08310595703125,-0.0794803639501333,0.4627376307532191,-0.285220963203907
2024-12-04 21:48:49.856140800,5.093140869140625,-0.1202770692408084,0.3581152267619967,-0.2151426338493824
2024-12-04 21:48:49.866174700,5.1031748046875,-0.3288075914740562,0.5004334474191069,-0.3117556266471743
2024-12-04 21:48:49.876209700,5.113209716796875,-0.2427536943525075,0.6414663044407963,-0.182675365486741
2024-12-04 21:48:49.886244900,5.123244873046875,0.0787549722850322,0.2818444725081324,0.0721054512679576
2024-12-04 21:48:49.896278500,5.133278564453125,0.2479500939518213,0.167973470917344,-0.1116463112786412
2024-12-04 21:48:49.906314500,5.143314453125,0.1732189703553915,0.2538368139028549,-0.4373153124660253
2024-12-04 21:48:49.916349400,5.153349365234375,-0.0994388638734817,0.6763470636859535,-0.6586389730378985
2024-12-04 21:48:49.926384400,5.16338427734375,-0.2556991006433963,1.3847545684993263,-1.059726203303039
2024-12-04 21:48:49.936418300,5.173418212890625,-0.318414207753539,1.6453484554469584,-1.4209750519156454
2024-12-04 21:48:49.946453200,5.183453369140625,0.0107177933692932,1.6832780808687209,-1.78665720680058
2024-12-04 21:48:49.956488400,5.193488525390625,1.0850345398217438,-0.2562497202634811,-0.6816992383688688
2024-12-04 21:48:49.966523400,5.2035234375,0.7385030756086111,-1.2950123382538556,1.1138719272494315
2024-12-04 21:48:49.976557600,5.2135576171875,-0.2320616199463605,-0.963346434739232,1.093993799085915
2024-12-04 21:48:49.986592300,5.22359228515625,-0.2561801621586084,-0.2894751135170459,0.3655906772091984
2024-12-04 21:48:49.996627500,5.23362744140625,-0.1542652635604143,0.1649088226497173,-0.0312792276218533
2024-12-04 21:48:50.006661400,5.243661376953125,-0.1369002872616052,0.0028249942928552,-0.3577969545930624
2024-12-04 21:48:50.016696600,5.253696533203125,-0.0414215591907501,-0.3496925585925579,-0.3329477600187063
2024-12-04 21:48:50.026731500,5.2637314453125,0.1831365532577037,-0.1484697290241718,-0.158077807585895
2024-12-04 21:48:50.036766200,5.27376611328125,0.1717798774629831,0.3605342706024647,-0.3299161372378468
2024-12-04 21:48:50.046800400,5.28380029296875,0.1075561193555593,0.6063309859126806,-0.2214709600880741
2024-12-04 21:48:50.056835300,5.29383544921875,-0.1010831239491701,0.8175380338788032,-0.0704842798069119
2024-12-04 21:48:50.066870500,5.30387060546875,-0.2308925761669874,0.8620102128118277,-0.0926256767272949
2024-12-04 21:48:50.076905500,5.313905517578125,-0.214516610905528,0.8763298300653696,-0.180112821522355
2024-12-04 21:48:50.086939400,5.323939453125,-0.2775812621057033,0.7871919954538344,-0.1404205703422427
2024-12-04 21:48:50.096974300,5.333974365234375,-0.3460100706875324,0.7888233960479497,-0.0372097867146134
2024-12-04 21:48:50.107009500,5.344009521484375,-0.4136836769878864,1.2483142999649046,0.0432715709716081
2024-12-04 21:48:50.117043500,5.35404345703125,-0.4268891955196857,2.088852685680985,0.2068862621575593
2024-12-04 21:48:50.127078400,5.364078369140625,-0.6352350088357925,1.928133131414652,-0.2691168006211519
2024-12-04 21:48:50.137113300,5.37411328125,-0.3577560380607843,1.4018962574362754,0.4543924117341637
2024-12-04 21:48:50.147148300,5.384148193359375,0.3178507286518812,1.1228051752895116,1.104632097478211
2024-12-04 21:48:50.157182500,5.394182373046875,0.6558195317029952,1.0974299110144377,1.0391536631345748
2024-12-04 21:48:50.167217400,5.404217529296875,0.9759411278963088,1.0678384903490543,0.9490031443491578
2024-12-04 21:48:50.177252400,5.41425244140625,1.0056640659868716,1.1505904233157631,1.0789306699886918
2024-12-04 21:48:50.187286300,5.424286376953125,0.7318436177194118,1.267782386022806,1.3391519242316483
2024-12-04 21:48:50.197321500,5.434321533203125,0.4780687631368637,0.9620978959828614,1.7838301666811107
2024-12-04 21:48:50.207356400,5.4443564453125,0.4486375014692544,0.487029483705759,2.0971888446107507
2024-12-04 21:48:50.217391600,5.4543916015625,0.508715830335021,0.9646785601258278,2.0683257382199165
2024-12-04 21:48:50.227425300,5.46442529296875,0.5561053580194711,1.870000675919652,2.0254607022225857
2024-12-04 21:48:50.237460500,5.47446044921875,0.0070598553836345,1.4220540793240068,1.5365230468079447
2024-12-04 21:48:50.247495400,5.484495361328125,-0.7508166137367487,0.5938759934872389,0.4346513539537787
2024-12-04 21:48:50.257530400,5.4945302734375,-1.0740578032553196,-0.2424322073131799,-0.1357177994787693
2024-12-04 21:48:50.267564300,5.504564208984375,-0.8688719152748584,-0.8662322144210338,-0.233998433227837
2024-12-04 21:48:50.277599200,5.51459912109375,-0.3957628203719854,-1.0690765077114104,-0.3667158818468451
2024-12-04 21:48:50.287634400,5.524634521484375,0.2675286546468735,-1.3556997389286756,-0.4280722678244114
2024-12-04 21:48:50.297668400,5.53466845703125,0.392758962380886,-1.6703163079649208,-0.4266597706779837
2024-12-04 21:48:50.307703600,5.54470361328125,0.0461538484096527,-1.673585538893938,-0.7442737679645419
2024-12-04 21:48:50.317738200,5.55473828125,0.2358487372696399,-1.4646183788090943,-1.342166595877707
2024-12-04 21:48:50.327773400,5.5647734375,0.6211866097390651,-1.4095581703662872,-1.5578016894191502
2024-12-04 21:48:50.337807400,5.574807373046875,0.212931387540698,-1.4491454998672009,-0.9219260445922612
2024-12-04 21:48:50.347842600,5.584842529296875,-0.7068938853800296,-1.7261393174737691,-0.2406912088647484
2024-12-04 21:48:50.357877500,5.59487744140625,-0.8184042953193187,-2.1168442699342966,-0.2445326867237686
2024-12-04 21:48:50.367912200,5.604912109375,-0.6929027694284916,-2.477617025467753,-0.2523088736832142
2024-12-04 21:48:50.377946400,5.6149462890625,-0.2684299874007702,-2.134927039113641,-0.1404492119148373
2024-12-04 21:48:50.387981300,5.624981201171875,0.3689642452955246,-1.003182770565152,0.0770952223792672
2024-12-04 21:48:50.398016500,5.6350166015625,0.6321650998711585,-0.1737064616113901,-0.2205012382730841
2024-12-04 21:48:50.408050200,5.64505029296875,0.5388444266170263,0.4477987125575542,-0.3988219156816601
2024-12-04 21:48:50.418085400,5.65508544921875,0.2052156985968351,0.3590741349220275,-0.2729159006431698
2024-12-04 21:48:50.428120300,5.665120361328125,-0.2811450920671224,-0.7359212424218654,-0.4471773657888174
2024-12-04 21:48:50.438155500,5.675155517578125,-0.5633130974411964,-1.1134627619266508,-0.3331064577117562
2024-12-04 21:48:50.448189400,5.685189453125,-0.6115729782193898,-0.7476321384817362,-0.2020665869161486
2024-12-04 21:48:50.458224400,5.695224365234375,-0.7204530396550893,-0.1224485680609941,-0.1833443507894873
2024-12-04 21:48:50.468259300,5.70525927734375,-0.8035352274894714,0.5159790993362665,-0.1794885521441698
2024-12-04 21:48:50.478294300,5.715294189453125,-0.751513363829255,1.1123480786830189,-0.1874073624446988
2024-12-04 21:48:50.488328400,5.725328369140625,-0.5584200647026301,1.4894903697371482,-0.1798620616316795
2024-12-04 21:48:50.498363400,5.73536328125,-0.2437789457470178,1.6862556353747844,-0.1209481003701686
2024-12-04 21:48:50.508398300,5.7453984375,0.0283662627846002,1.5366262149214744,-0.011508943746984
2024-12-04 21:48:50.518433300,5.755433349609375,0.0747071581989526,1.219730595037341,0.2562637487888336
2024-12-04 21:48:50.528467500,5.765467529296875,0.0516162054687738,0.8573778768360615,0.5289928946882486
2024-12-04 21:48:50.538502400,5.77550244140625,0.0123024322122335,0.5456389090627431,0.7833353200256824
2024-12-04 21:48:50.548537600,5.78553759765625,-0.0695773940950632,0.320663447985053,0.8959437543347477
2024-12-04 21:48:50.558571300,5.7955712890625,-0.0755330876290798,0.276565363061428,1.030915703882277
2024-12-04 21:48:50.568606500,5.8056064453125,-0.0180523740410804,0.3789993170976639,1.0832286594435572
2024-12-04 21:48:50.578641400,5.815641357421875,0.0031955811709165,0.3543371695280075,0.9272700359687208
2024-12-04 21:48:50.588676400,5.82567626953125,0.1191302372932434,0.2673562206894159,0.833176624776423
2024-12-04 21:48:50.598710300,5.835710205078125,0.2441729135006666,0.0873731630265712,0.6703641898840665
2024-12-04 21:48:50.608745200,5.8457451171875,0.4263561115562915,-0.1330728379279375,0.4870274378791451
2024-12-04 21:48:50.618780400,5.855780517578125,0.534796028009057,-0.3263730578035116,0.3914803207471966
2024-12-04 21:48:50.628815400,5.8658154296875,0.5591793586373329,-0.4209960458278656,0.2413125556334853
2024-12-04 21:48:50.638849500,5.875849609375,0.496596937996149,-0.3914285905599594,0.196633163690567
2024-12-04 21:48:50.648884200,5.88588427734375,0.3588695522606372,-0.3523167696163058,0.2804065486595034
2024-12-04 21:48:50.658919400,5.89591943359375,0.3035983314156532,-0.3094534871846437,0.4293965021654963
2024-12-04 21:48:50.668954400,5.905954345703125,0.2758814724504947,-0.2506032388091087,0.5758037457019091
2024-12-04 21:48:50.678988500,5.915988525390625,0.3220610398232936,-0.154551094764471,0.5953118715092539
2024-12-04 21:48:50.689023500,5.9260234375,0.1754752248495817,-0.0148421798229217,0.4960124161064624
2024-12-04 21:48:50.699058200,5.93605810546875,-0.2172995196223258,0.195400407025218,0.3786676009252667
2024-12-04 21:48:50.709093400,5.94609326171875,-0.5237251834183931,0.3564414483308792,0.3325353798255324
2024-12-04 21:48:50.719127300,5.956127197265625,-0.6193897894501685,0.4065332207113504,0.3092211397334933
2024-12-04 21:48:50.729162500,5.96616259765625,-0.4902285720080137,0.362816244059801,0.2314203994333744
2024-12-04 21:48:50.739197400,5.976197509765625,-0.3668500296205282,0.298979147182405,0.0955959247097373
2024-12-04 21:48:50.749232400,5.986232421875,-0.2746989846676588,0.2394254267126321,-0.048409810642898
2024-12-04 21:48:50.759266300,5.996266357421875,-0.1870066726893186,0.1830696255013346,-0.0853144769310951
2024-12-04 21:48:50.769301500,6.006301513671875,-0.0529383939832448,0.0844634130597114,-0.0144192782357335
2024-12-04 21:48:50.779336400,6.01633642578125,0.1604459980219602,-0.0422726230621337,0.0058180386289954
2024-12-04 21:48:50.789370400,6.026370361328125,0.3092196784287691,-0.1500268953382968,0.0139265262827277
2024-12-04 21:48:50.799405300,6.0364052734375,0.3165916685014963,-0.207576874770224,0.0383849679738283
2024-12-04 21:48:50.809440300,6.046440185546875,0.2446194882243871,-0.2118675577014684,0.076959321039915
2024-12-04 21:48:50.819475500,6.056475341796875,0.1939607296109199,-0.1432496562883257,0.0908276873946189
2024-12-04 21:48:50.829509400,6.06650927734375,0.1434422562509775,-0.0556213494569063,0.1276385379195213
2024-12-04 21:48:50.839544300,6.07654443359375,0.1897375589579343,0.0763110862642526,0.1984258923262357
2024-12-04 21:48:50.849579300,6.086579345703125,0.2990665332049131,0.2303191601932048,0.2514128016263246
2024-12-04 21:48:50.859614500,6.096614501953125,0.4005196595102548,0.3438312653437256,0.226879833394289
2024-12-04 21:48:50.869648400,6.1066484375,0.4966033677369356,0.4591489586114883,0.2480892101615667
2024-12-04 21:48:50.879683600,6.11668359375,0.5315513469994068,0.5766083400830626,0.2712362769931554
2024-12-04 21:48:50.889718300,6.12671826171875,0.3847960206776857,0.6836065332949162,0.2553460494220256
2024-12-04 21:48:50.899752400,6.13675244140625,0.187516960299015,0.786443222913146,0.3231716314136982
2024-12-04 21:48:50.909787400,6.146787353515625,0.0829728822410106,0.8201856257781386,0.4843249009221791
2024-12-04 21:48:50.919822300,6.156822265625,0.0999935751467943,0.755101743710041,0.6602694968491792
2024-12-04 21:48:50.929857300,6.166857177734375,0.1919423755258321,0.6265826235637069,0.8008487648844719
2024-12-04 21:48:50.939891500,6.176891357421875,0.3436287285089492,0.4502160028323531,0.9524316574931144
2024-12-04 21:48:50.949926400,6.186926513671875,0.5857242512136698,0.2821700512006879,1.1037959389150145
2024-12-04 21:48:50.959961300,6.19696142578125,0.893345262274146,0.1577148194923996,1.1122919645816087
2024-12-04 21:48:50.969996500,6.20699658203125,1.0592688149243592,0.1034609589964151,0.9844728093981744
2024-12-04 21:48:50.980030200,6.2170302734375,0.977289035373926,0.1211366086795926,0.8976508505135774
2024-12-04 21:48:50.990065400,6.2270654296875,0.7514251010239124,0.2130924233213067,0.9002490503132343
2024-12-04 21:48:51.000100400,6.237100341796875,0.4958189393609762,0.3681616967409848,0.9638993924468756
2024-12-04 21:48:51.010135300,6.24713525390625,0.4075830220252275,0.5520093208774924,0.8524094407737255
2024-12-04 21:48:51.020169200,6.257169189453125,0.4040156849324703,0.7107572828099131,0.6711345897346734
2024-12-04 21:48:51.030204400,6.267204345703125,0.4562584978669881,0.8320470362246036,0.3914151465564966
2024-12-04 21:48:51.040239400,6.2772392578125,0.4292617698699236,0.8909551522672176,-0.0186380649745464
2024-12-04 21:48:51.050274300,6.2872744140625,0.4207417788058519,0.9538134672403334,-0.4154121082156896
2024-12-04 21:48:51.060308500,6.29730859375,0.3686094405084848,1.0382754189953207,-0.7134452067196368
2024-12-04 21:48:51.070343200,6.30734326171875,0.2973345948457718,1.1079700097292662,-1.072839075115323
2024-12-04 21:48:51.080378400,6.31737841796875,0.311310513228178,1.2461322797507046,-1.5216682997643949
2024-12-04 21:48:51.090413300,6.327413330078125,0.3405067970961332,1.4314634204432368,-1.880533760371804
2024-12-04 21:48:51.100447500,6.337447509765625,0.2700795081734657,1.5456407115042208,-2.19645556678772
2024-12-04 21:48:51.110482400,6.347482421875,0.4548626595944166,1.545214448916167,-2.1848826178938148
2024-12-04 21:48:51.120517400,6.357517333984375,0.7400731014043093,1.601837961152941,-1.9106337150812147
2024-12-04 21:48:51.130552300,6.36755224609375,0.6366062971889972,1.723473459265381,-1.4912041879177094
2024-12-04 21:48:51.140586500,6.37758642578125,0.4137281006515025,1.7041833601228893,-1.072654366198182
2024-12-04 21:48:51.150621400,6.387621337890625,0.2808072384148836,1.6283223557136952,-1.3318389708697795
2024-12-04 21:48:51.160656400,6.397656494140625,0.3538765662789344,1.490779240503907,-1.4755623821496964
2024-12-04 21:48:51.170691300,6.40769140625,0.3617056524693965,1.2436156207546591,-1.168245322471857
2024-12-04 21:48:51.180725200,6.417725341796875,0.3112386170357465,1.013987073174119,-1.0532365490227935
2024-12-04 21:48:51.190760400,6.427760498046875,0.2066167975664138,0.7858377313006669,-0.8571423145145177
2024-12-04 21:48:51.200795400,6.43779541015625,0.0568786560416221,0.488391492773965,-0.94304014429152
2024-12-04 21:48:51.210830300,6.447830322265625,-0.2090823108971118,0.2674422915376722,-1.0349673173606395
2024-12-04 21:48:51.220864300,6.4578642578125,-0.4410743727385997,0.0050885918432846,-1.5166571936041116
2024-12-04 21:48:51.230899500,6.4678994140625,-0.5012509012818336,-0.1227201515439897,-1.9044056343466045
2024-12-04 21:48:51.240934400,6.477934326171875,-0.5326023173570633,-0.0758653243912849,-1.5072276864796876
2024-12-04 21:48:51.250968600,6.487968505859375,-0.7108727258831262,-0.0294543731151381,-0.7262666943699121
2024-12-04 21:48:51.261003300,6.498003173828125,-0.6722095254898071,-0.0319069127998314,-0.2841039418727159
2024-12-04 21:48:51.271038200,6.5080380859375,-0.4150158023744821,-0.3567707168178632,-0.1936468413561582
2024-12-04 21:48:51.281073400,6.518073486328125,-0.3562684298515319,-0.4361485702415928,-0.2455757660359144
2024-12-04 21:48:51.291107300,6.528107421875,-0.3232347597777843,-0.2616467570014298,-0.2394838789016008
2024-12-04 21:48:51.301142500,6.538142578125,-0.3143371675729751,-0.0563178072884678,-0.2394371171504259
2024-12-04 21:48:51.311177200,6.54817724609375,-0.6186965464890003,0.0607142156165093,0.2406716273814439
2024-12-04 21:48:51.321212400,6.55821240234375,-0.5741179845720529,0.1286389471337199,-0.0718003308415412
2024-12-04 21:48:51.331246300,6.568246337890625,-0.484260018992424,0.0227500303380191,-0.4359779263824224
2024-12-04 21:48:51.341281500,6.578281494140625,-0.6607996582031249,-0.0775650318481028,-0.3828694365292787
2024-12-04 21:48:51.351316500,6.58831640625,-0.5654629689514636,-0.01797390197739,-0.2107300781041383
2024-12-04 21:48:51.361351200,6.59835107421875,-0.3918506153643131,-0.1604055198810994,-0.0262456173688173
2024-12-04 21:48:51.371385300,6.60838525390625,-0.4963724815905094,-0.2957176611684262,0.2214630690425634
2024-12-04 21:48:51.381420300,6.618420166015625,-0.6381541111528873,-0.5564296215377748,0.5014245042830705
2024-12-04 21:48:51.391455500,6.62845556640625,-0.9641139119803904,-0.9635001639962196,0.9566694411933422
2024-12-04 21:48:51.401490400,6.638490478515625,-1.0033604652196169,-0.7872948713064193,1.2053466803759336
2024-12-04 21:48:51.411524400,6.6485244140625,-0.874376357910037,-0.2430725510433316,1.1529068835645913
2024-12-04 21:48:51.421559300,6.658559326171875,-0.8334493042379617,0.234423672902584,1.2783499572664498
2024-12-04 21:48:51.431594500,6.668594482421875,-0.8450923957586288,0.3538999471545219,1.227763094845414
2024-12-04 21:48:51.441629400,6.67862939453125,-0.976080828627944,0.3109577542677521,1.0808446869164705
2024-12-04 21:48:51.451663400,6.688663330078125,-1.0775099895358085,0.348508024983108,0.7914958301275968
2024-12-04 21:48:51.461698300,6.6986982421875,-1.0457470700502396,0.1328290922999382,0.6882534823179245
2024-12-04 21:48:51.471733200,6.708733154296875,-0.8635551041662692,0.0244447054266929,0.6157762751281262
2024-12-04 21:48:51.481768400,6.7187685546875,-0.871933056411147,-0.2698991831704974,0.6396095706582069
2024-12-04 21:48:51.491802400,6.72880224609375,-1.0915233173191548,-0.5704828429400921,0.9979764340937136
2024-12-04 21:48:51.501837300,6.73883740234375,-1.487642696043849,-0.5100897490367293,0.9631307461619376
2024-12-04 21:48:51.511872300,6.748872314453125,-1.322570791786909,-0.1557180927172303,0.3687923958599567
2024-12-04 21:48:51.521907500,6.758907470703125,-0.258486101013422,0.4303431353658437,0.1562941390395164
2024-12-04 21:48:51.531941400,6.76894140625,1.0162930120289324,1.0003384870499372,0.446267849728465
2024-12-04 21:48:51.541976600,6.7789765625,1.04378775267601,1.0102692216947675,0.6910904593095183
2024-12-04 21:48:51.552011300,6.78901123046875,0.1639338401377201,0.623374475172162,0.2342120759785175
2024-12-04 21:48:51.562046200,6.799046142578125,-0.3632312546014785,0.125746148301661,0.0036819033831357
2024-12-04 21:48:51.572080400,6.809080322265625,-0.1633089862376451,-0.2272244090482592,0.5254015921980142
2024-12-04 21:48:51.582115300,6.819115234375,0.212198397091031,-0.3873796074301004,1.0169964841231702
2024-12-04 21:48:51.592150500,6.829150634765625,0.0732493606060743,-0.4518248993337154,1.0175988339304924
2024-12-04 21:48:51.602185200,6.839185302734375,-0.4434299959540367,-0.6519879907160997,0.7742030422821641
2024-12-04 21:48:51.612219400,6.849219482421875,-0.736123486995697,-0.9005626463070511,0.7023363682061433
2024-12-04 21:48:51.622254300,6.85925439453125,-0.6059650752097367,-0.6049237494632601,0.6782552353948355
2024-12-04 21:48:51.632289500,6.86928955078125,-0.6642132660388946,-0.1634758672371506,0.688407211574912
2024-12-04 21:48:51.642324500,6.879324462890625,-0.921364903578162,-0.0530912464573979,0.6925336438551545
2024-12-04 21:48:51.652358400,6.8893583984375,-1.0020236636579036,-0.1916530371904373,0.1050029277414083
2024-12-04 21:48:51.662393300,6.899393310546875,-0.8263397644937038,-0.2418696049943566,-0.7887424397662282
2024-12-04 21:48:51.672428300,6.90942822265625,0.0213403096705675,-0.0948079892024397,-1.2058362174585462
2024-12-04 21:48:51.682463500,6.91946337890625,0.6192272923648358,0.0830541307836771,-0.6760889972716569
2024-12-04 21:48:51.692497200,6.9294970703125,0.6112555828332901,0.1656204780504107,-0.0857014304220676
2024-12-04 21:48:51.702532400,6.939532470703125,0.3234919494092464,0.3622951427951454,0.050502399007976
2024-12-04 21:48:51.712567300,6.9495673828125,-0.0188286191105842,0.6512143759950995,0.298930631865561
2024-12-04 21:48:51.722602200,6.959602294921875,-0.0920972689390182,0.7920160546094178,0.7182637129172682
2024-12-04 21:48:51.732636400,6.969636474609375,0.2078659208446741,0.811907919037342,0.9834358675658702
2024-12-04 21:48:51.742671400,6.97967138671875,0.1203290916889905,0.7217015784114599,1.212690321137011
2024-12-04 21:48:51.752706300,6.989706298828125,-0.3049976768195629,0.36596067956537,1.1902218842193484
2024-12-04 21:48:51.762741200,6.9997412109375,-0.3419458899885416,-0.0616205898717045,0.7769991027414799
2024-12-04 21:48:51.772775400,7.009775390625,0.0163017309814691,-0.3097723438754677,0.3262821646496653
2024-12-04 21:48:51.782810400,7.019810302734375,0.0051642508953809,-0.3380535587251186,0.2281961766898632
2024-12-04 21:48:51.792845300,7.02984521484375,-0.2315244443297386,-0.3223407335475087,0.3244391671314835
2024-12-04 21:48:51.802880300,7.03988037109375,-0.2318085219681263,-0.1830550124540925,0.0347714536517858
2024-12-04 21:48:51.812914400,7.04991455078125,-0.1587292572319507,-0.0248681915357708,-0.087670100146532
2024-12-04 21:48:51.822949400,7.059949462890625,-0.2116530381679534,0.0079772624894976,0.0946560135111212
2024-12-04 21:48:51.832984300,7.069984375,-0.3875304140776395,0.0085392802864313,0.2254942242547869
2024-12-04 21:48:51.843019300,7.080019287109375,-0.4283487466782331,-0.0789034408450126,0.2679857507646083
2024-12-04 21:48:51.853053400,7.090053466796875,-0.4114700925916433,-0.1338490829974412,0.2730430341541767
2024-12-04 21:48:51.863088400,7.10008837890625,-0.5090548530310393,-0.1470715526640415,0.3772559805616736
2024-12-04 21:48:51.873123300,7.110123291015625,-0.3695633802324533,-0.1466904443919658,0.1249020986929535
2024-12-04 21:48:51.883158500,7.120158447265625,-0.2585200032830238,-0.0363935018956661,-0.1304074181109666
2024-12-04 21:48:51.893192200,7.130192138671875,-0.4076853133559227,0.0313175138056278,-0.0961927215591073
2024-12-04 21:48:51.903227400,7.140227294921875,-0.4072773170769214,-0.00035422026515,-0.1845379444882273
2024-12-04 21:48:51.913261600,7.150261474609375,-0.0728945558190345,-0.029444705671072,-0.36599808896631
2024-12-04 21:48:51.923296800,7.160296875,0.2731324660032987,0.0168307232916355,-0.2736991599753499
2024-12-04 21:48:51.933330700,7.17033056640625,0.2671457928091287,0.1154430732131004,0.1316205932930111
2024-12-04 21:48:51.943366000,7.180365966796875,0.1534615459620952,0.1938531775832176,0.2539770991563796
2024-12-04 21:48:51.953400800,7.19040087890625,0.2313099247962236,0.0957177975237369,0.1092465566605329
2024-12-04 21:48:51.963435800,7.200435791015625,0.5081891761124133,0.0769663353025913,-0.0982078607738018
2024-12-04 21:48:51.973470700,7.210470703125,0.4161556200593709,0.0851724381119012,-0.2153817033022642
2024-12-04 21:48:51.983505000,7.2205048828125,0.1033884782820939,0.0127250415384769,-0.0563221912026405
2024-12-04 21:48:51.993539800,7.230539794921875,0.1284755732655525,-0.0356575888365507,-0.0791428025588393
2024-12-04 21:48:52.003574800,7.24057470703125,0.3200654820919036,0.0129173492401838,-0.2281786410331726
2024-12-04 21:48:52.013608700,7.250608642578125,0.1771364360600709,0.0860071353703737,-0.0723971276909112
2024-12-04 21:48:52.023643600,7.2606435546875,-0.1538917540729046,0.0486409890502691,0.1043435870498418
2024-12-04 21:48:52.033678800,7.270678955078125,-0.2120031667798757,-0.0104512513875961,0.0317313553035259
2024-12-04 21:48:52.043713800,7.2807138671875,-0.2664087107062339,-0.035011692148447,0.0508960745006799
2024-12-04 21:48:52.053748700,7.290748779296875,-0.4891062899798155,-0.0479524222642183,-0.07062777993083
2024-12-04 21:48:52.063782700,7.30078271484375,-0.4877092826634645,-0.1916372550994157,-0.453241195872426
2024-12-04 21:48:52.073817900,7.31081787109375,-0.4495405877888202,-0.3170785752356052,-0.5106061741262674
2024-12-04 21:48:52.083852800,7.320852783203125,-0.5911942070573568,-0.3629109366059303,-0.3145762370258569
2024-12-04 21:48:52.093887700,7.3308876953125,-0.4797270517379045,-0.3932563905090093,-0.5111211379110813
2024-12-04 21:48:52.103921700,7.340921630859375,-0.3533896595448255,-0.3276648511797189,-0.8012228588938712
2024-12-04 21:48:52.113956600,7.35095654296875,-0.1691243945181369,-0.1399205118656158,-0.7183055062323809
2024-12-04 21:48:52.123991800,7.36099169921875,0.0520814848929643,-0.0080371759831905,-0.5669277808070182
2024-12-04 21:48:52.134026800,7.37102685546875,0.2933230211168527,-0.0721481213659048,-0.2693079392790794
2024-12-04 21:48:52.144061000,7.38106103515625,0.0193535197675228,-0.1429296305537223,0.076429744207859
2024-12-04 21:48:52.154095600,7.391095703125,-0.110121001407504,-0.1499292801827192,-0.1587339334070682
2024-12-04 21:48:52.164130600,7.401130615234375,0.0906494082182645,-0.074924600341916,-0.4092547546297311
2024-12-04 21:48:52.174165800,7.411165771484375,0.162913849440217,0.0946831937789916,-0.2715472426384687
2024-12-04 21:48:52.184200000,7.421199951171875,0.1981710407823324,0.2552238843470811,-0.1975724903672933
2024-12-04 21:48:52.194235000,7.43123486328125,0.1161696339219808,0.274704245364666,-0.0996118823528289
2024-12-04 21:48:52.204269600,7.44126953125,0.0281920752614736,0.1739057835757732,-0.0592448006510734
2024-12-04 21:48:52.214304800,7.4513046875,0.1167173309326171,0.1067594160199165,-0.1537117213308811
2024-12-04 21:48:52.224338700,7.461338623046875,0.1634849273264408,0.1934972037523984,-0.1840717882812023
2024-12-04 21:48:52.234374000,7.471373779296875,0.1780798543900251,0.2236708082199096,-0.2005558900922536
2024-12-04 21:48:52.244408800,7.481408935546875,0.0926268457710742,0.1587900475084781,-0.0078209028840065
2024-12-04 21:48:52.254443500,7.491443603515625,-0.0884147810339927,0.1310983229845762,0.152954765483737
2024-12-04 21:48:52.264477700,7.501477783203125,-0.0272615164130926,0.1356383045017719,0.0710632487386465
2024-12-04 21:48:52.274512600,7.5115126953125,0.1449485691606998,0.1705494588851928,0.120206926614046
2024-12-04 21:48:52.284547800,7.5215478515625,0.2195253789782524,0.2181499989718198,0.1868681410014629
2024-12-04 21:48:52.294582800,7.531582763671875,0.2277560317069292,0.2061754835397005,0.2128910555303096
2024-12-04 21:48:52.304616700,7.54161669921875,0.207912682595849,0.140356565195322,0.2105576441466808
2024-12-04 21:48:52.314651600,7.551651611328125,0.2889168951123952,0.0132417588889598,0.0963356371611356
2024-12-04 21:48:52.324686800,7.561686767578125,0.3137017922788858,-0.0205249016344547,0.0023690672188997
2024-12-04 21:48:52.334721800,7.5717216796875,0.1158276886165142,-0.0245791454613208,0.1061713869988918
2024-12-04 21:48:52.344756700,7.5817568359375,-0.0346159708291292,0.0199251821756362,0.1755348460823297
2024-12-04 21:48:52.354790700,7.591790771484375,-0.0323760829478502,0.1001870518922805,0.1076361988544464
2024-12-04 21:48:52.364825600,7.60182568359375,-0.0670984367609024,0.151341485068202,0.131238608238101
2024-12-04 21:48:52.374860800,7.61186083984375,-0.0692266809612512,0.137872347164154,0.226605692628026
2024-12-04 21:48:52.384895700,7.621895751953125,-0.1219014555722474,0.0510533108890056,0.2871463783085346
2024-12-04 21:48:52.394929700,7.6319296875,-0.1890408088654279,0.0064092825204133,0.2095423296242952
2024-12-04 21:48:52.404964600,7.641964599609375,-0.0510901357680559,-0.0511480034351348,-0.0828466255128383
2024-12-04 21:48:52.414999800,7.651999755859375,0.1665834778636694,-0.1053109707772731,-0.209800103777647
2024-12-04 21:48:52.425034800,7.66203466796875,0.130574591371417,-0.0488508324086666,-0.0897691182523965
2024-12-04 21:48:52.435069000,7.67206884765625,0.0171492877215147,0.0384919354796409,0.0789414347678423
2024-12-04 21:48:52.445103600,7.682103515625,0.0021919570863246,0.1053343516528606,0.1551508142232894
2024-12-04 21:48:52.455138600,7.692138671875,0.0733323627144098,0.1347533383607864,0.1000321535915136
2024-12-04 21:48:52.465173800,7.702173828125,0.1265904901713132,0.1456429811656475,0.0646218175143003
2024-12-04 21:48:52.475207700,7.712207763671875,0.1094008704394102,0.1387552674785256,0.1361830789029598
2024-12-04 21:48:52.485243000,7.722242919921875,0.0398082787752151,0.1308218441307544,0.1575654741495847
2024-12-04 21:48:52.495277600,7.732277587890625,0.085663436499238,0.118142395299673,0.0240443079322576
2024-12-04 21:48:52.505312800,7.742312744140625,0.0627045857161283,0.09550678512156,-0.0889320829063654
2024-12-04 21:48:52.515346700,7.7523466796875,-0.0227922620445489,0.0461021182224154,-0.106764092195034
2024-12-04 21:48:52.525382000,7.7623818359375,-0.0720551823854446,0.002016015997529,-0.0683200875103473
2024-12-04 21:48:52.535416800,7.772416748046875,-0.0552279662251472,-0.0252326409339904,-0.1159440084725618
2024-12-04 21:48:52.545451500,7.782451416015625,-0.0026233342409133,-0.0238785959765315,-0.2056768863677978
2024-12-04 21:48:52.555486700,7.79248681640625,0.018528759381175,0.0147583009317517,-0.1437678349435329
2024-12-04 21:48:52.565520600,7.802520751953125,-0.0689034403562545,0.0008744447469711,-0.0136737205654382
2024-12-04 21:48:52.575555800,7.812555908203125,-0.22682196572721,-0.113679570671916,0.1020440779358148
2024-12-04 21:48:52.585590800,7.8225908203125,-0.0846457838892936,-0.1703568589225411,0.1312134737968444
2024-12-04 21:48:52.595625700,7.832625732421875,-0.1305956341594457,-0.1578641648352146,0.3379530209600925
2024-12-04 21:48:52.605659600,7.84265966796875,-0.3152121968418359,-0.0980497476026415,0.3209539553642273
2024-12-04 21:48:52.615694800,7.85269482421875,-0.1528530586749315,-0.0535185319587588,0.0685614950507879
2024-12-04 21:48:52.625729800,7.862729736328125,-0.0216781633228063,0.0536231613770127,0.0658510670483112
2024-12-04 21:48:52.635764700,7.8727646484375,-0.0052642041385173,0.1228825755640864,0.1568926894545555
2024-12-04 21:48:52.645798700,7.882798583984375,0.0513449873119592,0.118742991541326,0.1497264510869979
2024-12-04 21:48:52.655833600,7.89283349609375,0.1501332783222198,0.1261848319798708,0.1171773496598005
2024-12-04 21:48:52.665868800,7.902868896484375,0.0924222631096839,0.158268069460988,0.0494330162107944
2024-12-04 21:48:52.675903700,7.91290380859375,-0.0628717589765787,0.0743608289793133,0.073671385410428
2024-12-04 21:48:52.685939000,7.92293896484375,-0.2001011320620775,-0.0750643010735511,0.2290875725716352
2024-12-04 21:48:52.695972600,7.93297265625,-0.255455355015397,-0.0921457842558622,0.1095686282217502
2024-12-04 21:48:52.706007800,7.9430078125,-0.2090361336678266,5.72831451892e-05,-0.0523930350601673
2024-12-04 21:48:52.716042800,7.953042724609375,-0.1317541565448045,0.0306575885921716,0.1423778418898582
2024-12-04 21:48:52.726077700,7.96307763671875,0.0624953268796205,0.098977676102519,0.2911947769165039
2024-12-04 21:48:52.736111600,7.973111572265625,0.1558586702316999,0.1357353351354598,0.2694675137549638
2024-12-04 21:48:52.746146600,7.983146484375,0.1072112514406442,0.1593792455732822,0.2226023022055625
2024-12-04 21:48:52.756181800,7.993181640625,0.1320522627085447,0.1604655795052647,-0.0161006554514169
2024-12-04 21:48:52.766216700,8.003216796875,0.2674158419221639,0.1533785438537597,-0.1862520549297332
2024-12-04 21:48:52.776251000,8.0132509765625,0.4743190552145242,0.2621288414299488,-0.1371329269737005
2024-12-04 21:48:52.786285600,8.02328564453125,0.5492167675495148,0.3617430618703365,0.0863420664131641
2024-12-04 21:48:52.796320800,8.03332080078125,0.4768272386431694,0.3755293028995394,0.3423813587963581
2024-12-04 21:48:52.806355700,8.043355712890625,0.3754530227929353,0.3514338493019342,0.3710661860108375
2024-12-04 21:48:52.816390000,8.053389892578124,0.2174187620878219,0.2753334831789136,0.1985696847110986
2024-12-04 21:48:52.826424800,8.0634248046875,0.1683598398864269,0.1594207466274499,0.102901571547985
2024-12-04 21:48:52.836459500,8.07345947265625,0.2312222465127706,0.0589797199741005,0.0737245769023895
2024-12-04 21:48:52.846494700,8.08349462890625,0.3389928854018449,-0.0545192334339022,-0.0082025956779718
2024-12-04 21:48:52.856529700,8.09352978515625,0.2798971378326416,-0.1936272598728537,-0.0415326183497905
2024-12-04 21:48:52.866563800,8.103563720703125,0.1086772323399782,-0.116702717885375,-0.1241004269212484
2024-12-04 21:48:52.876598800,8.113598876953125,0.1890349636465311,0.0344999432340264,-0.300804901304841
2024-12-04 21:48:52.886633700,8.1236337890625,0.3543360004842281,0.2579576932251453,-0.3489186516106128
2024-12-04 21:48:52.896668700,8.133668701171874,0.4433347188860178,0.3725862351849675,-0.3419681018203496
2024-12-04 21:48:52.906702800,8.143702880859376,0.2841922046780586,0.2144771556779742,-0.3515957618653774
2024-12-04 21:48:52.916738000,8.153738037109376,-0.0662035337477922,-0.0917792890310287,-0.3706447457283735
2024-12-04 21:48:52.926773000,8.16377294921875,-0.2046668325424194,-0.2555661219134926,-0.3119990800142288
2024-12-04 21:48:52.936808200,8.17380810546875,-0.0989098715633153,-0.1774716593638062,-0.1675719043791294
2024-12-04 21:48:52.946842000,8.183842041015625,0.0061994391620159,0.0072916183128952,-0.0121148006856441
2024-12-04 21:48:52.956877300,8.193877197265625,0.0134293904155492,0.1556535030484199,0.0465799648672342
2024-12-04 21:48:52.966912300,8.203912353515625,-0.0458662636399269,0.2329685056582093,-0.0001227495968341
2024-12-04 21:48:52.976947000,8.213947021484374,0.0160328509122133,0.2891948352709412,-0.067822659382224
2024-12-04 21:48:52.986982100,8.223982177734374,0.2103138985186815,0.3395984500795602,-0.1065881511062383
2024-12-04 21:48:52.997016000,8.23401611328125,0.4230506402701139,0.3970084365189075,-0.2327741521298885
2024-12-04 21:48:53.007051300,8.24405126953125,0.4061088578194379,0.3593929916128516,-0.2050806740403175
2024-12-04 21:48:53.017086200,8.254086181640625,0.097245153221488,0.1516898601144552,-0.0213210204482078
2024-12-04 21:48:53.027121200,8.26412109375,0.0399152462810277,-0.0499623007819056,-0.0870809020817279
2024-12-04 21:48:53.037155000,8.274155029296875,0.3825543792307376,0.0892392491593956,-0.3038356473028659
2024-12-04 21:48:53.047190300,8.284190185546874,0.6432558182060718,0.2654141467109322,-0.262615163642168
2024-12-04 21:48:53.057225200,8.29422509765625,0.7259814476877451,0.3158049020379782,-0.2842559175640344
2024-12-04 21:48:53.067260200,8.30426025390625,0.832977010551095,0.397874697959423,-0.4032125518560409
2024-12-04 21:48:53.077294000,8.314294189453125,0.595621375849843,0.3211366184547543,-0.3240390618979931
2024-12-04 21:48:53.087329000,8.3243291015625,0.473362777402997,0.115861590886116,-0.5661679023504257
2024-12-04 21:48:53.097364200,8.3343642578125,0.8229553827524184,0.1337032447859645,-0.9137655344903468
2024-12-04 21:48:53.107399200,8.344399169921875,0.915305749669671,0.3820975753739476,-0.6686638157069683
2024-12-04 21:48:53.117434400,8.354434326171875,0.6765612909585237,0.5121177477329969,-0.0849894827604293
2024-12-04 21:48:53.127468000,8.364468017578124,0.6335907487601041,0.5623670487627387,0.1656611023217439
2024-12-04 21:48:53.137503200,8.374503173828124,0.6680372082412243,0.6536316662698983,0.2152647989243268
2024-12-04 21:48:53.147538200,8.3845380859375,0.423326534602046,0.5066331788420677,0.406121717301011
2024-12-04 21:48:53.157573000,8.394572998046876,0.0526321045130491,0.2569038002580404,0.517168016859889
2024-12-04 21:48:53.167607000,8.40460693359375,0.0582014290779829,0.1713672050088644,0.2488204470455646
2024-12-04 21:48:53.177642000,8.41464208984375,0.211521520742774,0.124725865343213,0.3146761902689933
2024-12-04 21:48:53.187677200,8.42467724609375,0.0015039748221635,0.0686561875969171,0.4809130466520786
2024-12-04 21:48:53.197712100,8.434712158203125,-0.2426233459711074,-0.0730506231635809,0.2038438257217407
2024-12-04 21:48:53.207747300,8.444747314453124,-0.5882400334268808,-0.3019692689090967,-0.2171282547086477
2024-12-04 21:48:53.217781000,8.454781005859376,-0.6042255380660295,-0.3950485346227884,-0.395888492578268
2024-12-04 21:48:53.227816200,8.464816162109376,-0.1376104813575744,-0.2451198389619588,-0.3103893067300319
2024-12-04 21:48:53.237851100,8.47485107421875,-0.1015203463226556,-0.1012058735460042,0.050008185750246
2024-12-04 21:48:53.247886000,8.484885986328125,-0.5632394476830959,-0.1220744740515947,0.2653016262471676
2024-12-04 21:48:53.257920300,8.494920166015625,-0.8484048813074827,-0.2721358561813831,0.1826929011434316
2024-12-04 21:48:53.267955000,8.504954833984375,-0.7988806796818971,-0.3464525537580251,-0.0135801970630884
2024-12-04 21:48:53.277990100,8.514990234375,-0.7064613391816615,-0.3493243098020553,0.0538169303834438
2024-12-04 21:48:53.288025000,8.525025146484374,-0.8332681024521589,-0.3184101161003113,0.3355558966904878
2024-12-04 21:48:53.298060300,8.535060302734376,-0.7787778028517961,-0.2369400396376848,0.3096235830545425
2024-12-04 21:48:53.308094200,8.54509423828125,-0.6560714606374501,-0.1486918473422527,0.2144341933190822
2024-12-04 21:48:53.318129200,8.555129150390625,-0.6869447378069162,-0.1851835489153862,0.281584068006277
2024-12-04 21:48:53.328164000,8.5651640625,-0.7365566177159547,-0.3177612968027591,0.2025117003351449
2024-12-04 21:48:53.338199000,8.575198974609375,-0.633868981179595,-0.336090734219551,0.0295768076181411
2024-12-04 21:48:53.348233200,8.585233154296875,-0.681461922481656,-0.2658843945711851,0.1982926213353872
2024-12-04 21:48:53.358268200,8.59526806640625,-0.8603045779377222,-0.1710848809361457,0.3968213895142078
2024-12-04 21:48:53.368303000,8.60530322265625,-0.6512070694714784,-0.0832154588252306,0.2525502812236547
2024-12-04 21:48:53.378338000,8.615338134765626,-0.3998112189799547,0.091239775326848,0.1414209795564413
2024-12-04 21:48:53.388372200,8.625372314453125,-0.3746031279653311,0.1630886214852333,0.288576118850708
2024-12-04 21:48:53.398407200,8.6354072265625,-0.4437731103032827,0.1114139638274908,0.2029179430484771
2024-12-04 21:48:53.408442400,8.6454423828125,-0.3183393889516592,0.10531681599617,-0.0659253013283014
2024-12-04 21:48:53.418477000,8.65547705078125,-0.135425538533926,0.1164262390315532,-0.138038351380825
2024-12-04 21:48:53.428512000,8.665511962890625,0.1002677159130573,0.1195399871379137,-0.1342442197948694
2024-12-04 21:48:53.438546200,8.675546142578124,0.0356429757893085,0.0143535195231437,0.0571405218482017
2024-12-04 21:48:53.448581000,8.6855810546875,-0.1742564967095851,-0.0882914469152689,0.2570446700334549
2024-12-04 21:48:53.458616300,8.6956162109375,0.1648965476900339,0.0063952539950609,-0.1276993281960487
2024-12-04 21:48:53.468651000,8.705651123046875,0.8023597539693117,-0.0483563268899917,-0.3891337576210498
2024-12-04 21:48:53.478685200,8.715685302734375,1.146020046660304,0.2212526411622762,-0.3198848648279905
2024-12-04 21:48:53.488720100,8.72572021484375,1.4809481668412685,0.2925502831786871,-0.448332381042838
2024-12-04 21:48:53.498755300,8.73575537109375,1.2395353657037018,0.2782604765415191,-0.6419885747492313
2024-12-04 21:48:53.508790300,8.745790283203124,0.9052829528272152,0.2863420761883258,-0.5922375786304473
2024-12-04 21:48:53.518825000,8.755824951171874,0.6830261030584573,0.1966717421352863,-0.3788765675008296
2024-12-04 21:48:53.528859100,8.765859130859376,0.3169634244233369,0.1482896962821483,-0.1688490847080946
2024-12-04 21:48:53.538894000,8.77589404296875,0.0198223063230514,0.1896557258933782,-0.0343207872748374
2024-12-04 21:48:53.548929300,8.78592919921875,-0.2524082424044609,0.1429226162910461,0.1223544600367546
2024-12-04 21:48:53.558964200,8.795964111328125,-0.4632318440109491,0.0802127698779106,0.2793897728323936
2024-12-04 21:48:53.568998100,8.805998046875,-0.4760574233144521,0.0775607940644025,0.2670674668759107
2024-12-04 21:48:53.579033000,8.816033203125,-0.3141892835348844,0.0487041174143552,0.2505769353240728
2024-12-04 21:48:53.589068300,8.826068359375,-0.1707078643172979,0.0683902301371097,0.2851087350010872
2024-12-04 21:48:53.599103200,8.836103271484374,-0.0560737693995237,0.1370142690300941,0.2280313415169715
2024-12-04 21:48:53.609138200,8.84613818359375,0.1043967785418033,0.1202653788030147,0.1831359687358141
2024-12-04 21:48:53.619172000,8.856172119140625,0.1853057139903307,0.1041711530923843,0.0663005643814802
2024-12-04 21:48:53.629207000,8.86620703125,0.3182996414631605,0.1053933883637189,-0.1433709445804357
2024-12-04 21:48:53.639242200,8.8762421875,0.4561421780109405,0.1181944177478551,-0.2601221777826547
2024-12-04 21:48:53.649277200,8.886277099609375,0.4487064750522375,0.1955675802856683,-0.2121972280472517
2024-12-04 21:48:53.659311000,8.89631103515625,0.3901128317862748,0.2230243270099162,-0.1324503221154213
2024-12-04 21:48:53.669346000,8.906345947265624,0.3328472222536802,0.2013894183069467,-0.1143213757067918
2024-12-04 21:48:53.679381200,8.91638134765625,0.2114297508060932,0.191605106395483,-0.0911082579016685
2024-12-04 21:48:53.689416200,8.926416259765626,0.1245259588569402,0.1742722788006067,-0.1453694249212741
2024-12-04 21:48:53.699451100,8.936451171875,0.0486427426159381,0.1182663139402866,-0.1958224318295717
2024-12-04 21:48:53.709485000,8.946485107421875,0.0460217464625835,0.1070318032205104,-0.1522334654718637
2024-12-04 21:48:53.719520000,8.95652001953125,0.0542746110230684,0.0867944863557815,-0.0656543754324316
2024-12-04 21:48:53.729555200,8.96655517578125,-0.0439689055860042,0.0144569798976182,-0.0319742241486907
2024-12-04 21:48:53.739590100,8.976590087890624,-0.0642032998412847,0.0265840555429458,-0.0675567019224166
2024-12-04 21:48:53.749624300,8.986624267578126,-0.0542751955449581,0.0366343249142169,-0.1100643027842044
2024-12-04 21:48:53.759659000,8.996658935546876,-0.0260047943502664,0.0497697008192539,-0.0919400325506925
2024-12-04 21:48:53.769694200,9.006694091796875,0.0259580325990915,0.0292243409186601,-0.0950514425694942
2024-12-04 21:48:53.779729200,9.016729248046875,0.0778536395311355,0.0538461564779281,-0.0249146610260009
2024-12-04 21:48:53.789764000,9.02676416015625,0.0832283183068037,0.0003495440900325,0.0795712571039795
2024-12-04 21:48:53.799798300,9.03679833984375,0.0536626166045665,-0.0808586665660142,0.1188736321836709
2024-12-04 21:48:53.809833000,9.0468330078125,-0.0703279202014207,-0.1082756658017635,0.2189563469186425
2024-12-04 21:48:53.819868200,9.0568681640625,-0.09811784440279,-0.0912193170607089,0.2758770885363221
2024-12-04 21:48:53.829903000,9.066903076171876,-0.0684153645783662,0.011583470287919,0.3257005653694272
2024-12-04 21:48:53.839937300,9.076937255859375,-0.0566816721647977,0.0667372022330761,0.3486544477164745
2024-12-04 21:48:53.849972200,9.08697216796875,-0.0383025503873825,0.0640899025946855,0.2868041407421231
2024-12-04 21:48:53.860007200,9.097007080078123,-0.0242675952941179,0.1054056633234024,0.169599903075397
2024-12-04 21:48:53.870042000,9.1070419921875,-0.0040747020930051,0.1681739619255065,0.0407739089369773
2024-12-04 21:48:53.880077000,9.1170771484375,-0.0191670572847127,0.1001923125892877,-0.0389706589072942
2024-12-04 21:48:53.890111200,9.127111328125,-0.0304079977452754,0.0575379967331886,-0.1257175067290663
2024-12-04 21:48:53.900146200,9.137146240234374,0.0083826284199953,0.0675806673198938,-0.1326499363407492
2024-12-04 21:48:53.910180600,9.1471806640625,0.0205740014731884,0.0434849214613437,0.0066644263252615
2024-12-04 21:48:53.920215600,9.157215576171875,-0.0468739793777465,0.0871709184527397,0.2676663095518946
2024-12-04 21:48:53.930250800,9.167250732421875,-0.0913537570953369,0.180620186522603,0.4557274597302079
2024-12-04 21:48:53.940284700,9.17728466796875,-0.1539297479957342,0.204598443481326,0.4122945607170462
2024-12-04 21:48:53.950319900,9.18731982421875,-0.1211684651225805,0.0887456204235553,0.3720572428748011
2024-12-04 21:48:53.960354600,9.1973544921875,-0.1794756926625967,0.0570060818135738,0.4062029658436775
2024-12-04 21:48:53.970389500,9.207389404296874,-0.2343003387838602,0.0290916544497013,0.3258285756632685
2024-12-04 21:48:53.980423700,9.217423583984376,-0.1718067654699087,-0.0199403797447681,0.2205821945548057
2024-12-04 21:48:53.990458600,9.227458740234376,-0.1072381394475698,0.0054576808840036,0.2603258836612105
2024-12-04 21:48:54.000493800,9.237493896484375,-0.2129664588540792,0.0882441006422042,0.390703783416748
2024-12-04 21:48:54.010528500,9.247528564453123,-0.3077081048220396,0.149582658702135,0.3658069503083825
2024-12-04 21:48:54.020563700,9.257563720703123,-0.169146606349945,0.0816173759788274,0.1941796330586075
2024-12-04 21:48:54.030597600,9.26759765625,0.1270937635183334,0.0573398438125848,-0.0463578465491533
2024-12-04 21:48:54.040632800,9.2776328125,0.3635059798896312,-0.1032417632877826,-0.1727621664986014
2024-12-04 21:48:54.050667800,9.287667724609374,0.2813894222170114,-0.271095407217741,-0.1074345388025045
2024-12-04 21:48:54.060702500,9.297702392578126,0.1583756214886903,-0.3395955274701118,0.019312018713355
2024-12-04 21:48:54.070737700,9.307737548828126,0.0730915396958589,-0.2782259897500276,0.0311690452456474
2024-12-04 21:48:54.080771600,9.317771484375,0.1996826143890619,-0.0973988824784755,-0.0544710103780031
2024-12-04 21:48:54.090806800,9.327806884765623,0.2960579990386963,0.1618178708970546,-0.0960036287277937
2024-12-04 21:48:54.100841700,9.337841796875,0.3772895905703306,0.3870376621246337,-0.1831745471805334
2024-12-04 21:48:54.110876700,9.347876708984376,0.3785726161181926,0.4734399342924356,-0.261693957144022
2024-12-04 21:48:54.120910600,9.35791064453125,0.295786196359992,0.3223264127612114,-0.3165396460533142
2024-12-04 21:48:54.130945800,9.36794580078125,0.0909416691631078,0.002017769563198,-0.2983282820582389
2024-12-04 21:48:54.140980700,9.377980712890626,-0.0882955385684967,-0.3363455857634544,-0.3062187430471181
2024-12-04 21:48:54.151015700,9.388015625,-0.1212339315742254,-0.3610609248250723,-0.4180962327331304
2024-12-04 21:48:54.161050600,9.398050537109375,-0.0010679214924573,-0.0862152251631021,-0.4443909499406814
2024-12-04 21:48:54.171084500,9.40808447265625,0.1743003358513116,0.1140758765131235,-0.3071989862561226
2024-12-04 21:48:54.181119700,9.41811962890625,0.3103957364708185,0.1880675799190998,-0.2489151395916938
2024-12-04 21:48:54.191154700,9.42815478515625,0.3724976801186799,0.2578045484900474,-0.3705325175255536
2024-12-04 21:48:54.201189600,9.438189697265624,0.3143260616570711,0.2279956856817007,-0.5440156917750835
2024-12-04 21:48:54.211223600,9.4482236328125,0.2825532052993774,0.1381611009776592,-0.5288029250741004
2024-12-04 21:48:54.221258800,9.4582587890625,0.2298714164257049,-0.0172018946915864,-0.2683487388581037
2024-12-04 21:48:54.231293700,9.468293701171875,0.1103483804225921,-0.1112397763043642,-0.1136667111903429
2024-12-04 21:48:54.241328600,9.47832861328125,0.0750303988039493,-0.033182138633728,-0.20108488240242
2024-12-04 21:48:54.251363800,9.48836376953125,-0.1550812561184167,0.0860807851284742,0.1277951897859573
2024-12-04 21:48:54.261397500,9.4983974609375,-0.3441922076106071,0.18094284260571,0.4413382843717932
2024-12-04 21:48:54.271432700,9.5084326171875,-0.0096650694459676,0.3293178790837526,0.3779252581253647
2024-12-04 21:48:54.281467600,9.518467529296874,0.5466062927901745,0.5131558586090803,0.1500365399494767
2024-12-04 21:48:54.291502600,9.528502685546876,0.5258429062247276,0.4826806408464908,-0.0445019895493984
2024-12-04 21:48:54.301537800,9.538537841796876,0.3622907588809728,0.2524333768457174,-0.3698635322228074
2024-12-04 21:48:54.311571700,9.54857177734375,0.2876595885276794,0.0295382291734218,-0.4948799049451947
2024-12-04 21:48:54.321606700,9.558606689453123,-0.0323702377289533,-0.0820645352244377,-0.0185594467803835
2024-12-04 21:48:54.331641600,9.5686416015625,-0.5083680398106575,-0.1787479629099368,0.4582628234267235
2024-12-04 21:48:54.341676800,9.5786767578125,-0.7181529460191727,-0.1409153681218624,0.4644789214625954
2024-12-04 21:48:54.351711700,9.588711669921874,-0.6898784531712532,-0.0226262578278779,0.509055145291984
2024-12-04 21:48:54.361745700,9.59874560546875,-0.471251484337449,-0.0022702830195426,0.4405675922602415
2024-12-04 21:48:54.371780600,9.608780517578126,-0.2172603566557168,0.0539607227683067,0.1589919998213648
2024-12-04 21:48:54.381815600,9.618815673828124,-0.0486456652253866,0.0601508095800876,0.0455894925251603
2024-12-04 21:48:54.391850800,9.628850830078123,-0.2519984925597906,0.0074070613861083,0.1784817131891846
2024-12-04 21:48:54.401884700,9.638884765625,-0.3249854028373956,-0.0732546213030815,0.324227570207417
2024-12-04 21:48:54.411919600,9.648919677734376,-0.1506745455920696,-0.0868242969721555,0.4334948773950338
2024-12-04 21:48:54.421954600,9.65895458984375,-0.1646791055470705,-0.0907113675385713,0.5888257243603467
2024-12-04 21:48:54.431989800,9.66898974609375,-0.1535007089287042,-0.1472124224394559,0.4366536336869001
2024-12-04 21:48:54.442024700,9.679024658203126,0.131044546970725,-0.1805488748520612,0.1013993502914905
2024-12-04 21:48:54.452058600,9.68905859375,0.360272404795885,-0.0906827259659767,0.0111778120964765
2024-12-04 21:48:54.462093600,9.699093505859375,0.3183358818203211,-0.0474397965669631,0.078415949589014
2024-12-04 21:48:54.472128500,9.70912841796875,0.116654202568531,-0.0648503655731678,0.1292787063419818
2024-12-04 21:48:54.482163700,9.719163818359377,0.015869184783101,-0.0070008186727762,0.0809434222400188
2024-12-04 21:48:54.492198700,9.72919873046875,0.1870019965142011,0.1148123740941286,-0.1077946042865514
2024-12-04 21:48:54.502232600,9.739232666015624,0.54422728869915,0.1999538325458764,-0.1937391958147287
2024-12-04 21:48:54.512267500,9.749267578125,0.5461906977266073,0.3481388994097709,-0.1957236476302147
2024-12-04 21:48:54.522302700,9.759302734375,0.3400473628908395,0.4938736505120992,-0.0966179612338542
2024-12-04 21:48:54.532337700,9.769337646484376,0.1373456929415464,0.3008060703486204,-0.0659451750725507
2024-12-04 21:48:54.542372600,9.77937255859375,0.0180640644788742,-0.3280266702294349,0.0100666359841823
2024-12-04 21:48:54.552406500,9.789406494140623,0.1343669693917036,-0.9871668707877396,-0.5529138685017824
2024-12-04 21:48:54.562441500,9.79944140625,0.2303326041966676,0.02732230668962,-1.020132151800394
2024-12-04 21:48:54.572476700,9.8094765625,0.233112590304017,1.190015840253234,-0.2655652456194162
2024-12-04 21:48:54.582511600,9.81951171875,-0.0130225631803274,1.0053916787862778,0.769167678463459
2024-12-04 21:48:54.592546800,9.829546875,0.0809872613817453,0.3597510112702846,0.6504460219711065
2024-12-04 21:48:54.602580500,9.83958056640625,0.1814490385621786,0.0535971501529216,-0.4828168344467878
2024-12-04 21:48:54.612615700,9.84961572265625,0.7516974882245063,-0.3506166877001523,-0.8906845186322927
2024-12-04 21:48:54.622650600,9.859650634765623,1.2866010682612656,-0.3493827619910239,-0.7539414677590132
2024-12-04 21:48:54.632685600,9.869685546875,1.426103062453866,-0.0584182866990566,-0.7972785051822662
2024-12-04 21:48:54.642719700,9.8797197265625,1.1323352201789616,0.6560317131489515,-0.8362170153856276
2024-12-04 21:48:54.652754400,9.88975439453125,0.6360597692221402,1.1110714828759432,-0.5019447287648916
2024-12-04 21:48:54.662789600,9.89978955078125,0.149110949537158,1.1327689354211092,0.0061053311377763
2024-12-04 21:48:54.672824600,9.909824462890626,-0.0989320833951234,0.8700929815024137,0.2243710654437541
2024-12-04 21:48:54.682859800,9.91985986328125,-0.2903098107755184,0.3555284251391887,0.455926781694591
2024-12-04 21:48:54.692893700,9.929893798828124,-0.1427279705017805,-0.1419914729207754,0.3409536640807986
2024-12-04 21:48:54.702928600,9.9399287109375,0.2225046870499849,-0.4115671232253313,-0.0315855170920491
2024-12-04 21:48:54.712963600,9.949963623046877,0.3990916725337505,-0.3941828577041625,-0.2545642513945698
2024-12-04 21:48:54.722998500,9.95999853515625,0.1958072342604398,-0.3065425681740045,-0.09264408916682
2024-12-04 21:48:54.733033700,9.97003369140625,-0.3115945908665657,-0.0938081645101308,0.2570645437777042
2024-12-04 21:48:54.743067600,9.980067626953126,-0.9870558116286992,0.2630091313958168,0.6084218207120895
2024-12-04 21:48:54.753102600,9.9901025390625,-1.0987865863204005,0.5238865114599466,0.7825196197286248
2024-12-04 21:48:54.763137500,10.000137451171875,-0.7069961767107248,0.5648948136746883,0.9289368001371622
2024-12-04 21:48:54.773172700,10.0101728515625,-0.2683861482590436,0.4133621899485588,1.1651806742042303
2024-12-04 21:48:54.783207700,10.020207763671875,-0.2209212172508239,0.1451741946101188,1.270315119370818
2024-12-04 21:48:54.793241900,10.030241943359377,-0.8095891207009553,-0.3843243115127086,1.225668752914667
2024-12-04 21:48:54.803276500,10.040276611328125,-1.6524498118847608,-1.0743225916713477,1.0264701226502655
2024-12-04 21:48:54.813311500,10.0503115234375,-1.899312695121765,-1.636253879365325,0.6199725577741861
2024-12-04 21:48:54.823346700,10.0603466796875,-1.5041764822155237,-1.655002418977022,0.325251360297203
2024-12-04 21:48:54.833381600,10.070381591796876,-1.1643857244342566,-0.8140642202883959,0.2342997542619705
2024-12-04 21:48:54.843415800,10.080415771484375,-0.6841080530762672,-0.0003869534909725,0.0623947891145944
2024-12-04 21:48:54.853450500,10.090450439453123,-0.1466816765636205,0.4662964922785759,-0.3937146556705236
2024-12-04 21:48:54.863485700,10.100485595703123,0.2347095041066408,0.6061264032512903,-0.69130176397264
2024-12-04 21:48:54.873520600,10.110520751953125,0.2892570868521928,0.4259124594420194,-0.8706599677354097
2024-12-04 21:48:54.883554800,10.120554931640624,0.8546271168231964,0.1130956333041191,-0.7597954544842243
2024-12-04 21:48:54.893589800,10.13058984375,0.9843857156366108,0.0128179805189371,-0.4983627786248922
2024-12-04 21:48:54.903624400,10.14062451171875,1.1115981370985508,-0.0526052165061235,-0.5787269396722317
2024-12-04 21:48:54.913660200,10.15066015625,0.8925631719857454,-0.1617418830513954,-0.5204156204789877
2024-12-04 21:48:54.923695400,10.1606953125,0.6323802039265632,-0.1330067869544029,-0.4927741648375988
2024-12-04 21:48:54.933729300,10.170729248046875,0.548813447445631,-0.0805190593481063,-0.2434212183505296
2024-12-04 21:48:54.943764200,10.18076416015625,0.7919061644941567,0.3309522022873163,-0.2316004321753978
2024-12-04 21:48:54.953799200,10.190799072265625,0.5899959371834993,0.6236293267160654,-0.0849450590968132
2024-12-04 21:48:54.963834400,10.20083447265625,-0.0916173764675855,0.6104103641808033,0.0389975469142198
2024-12-04 21:48:54.973869300,10.210869384765624,0.1232107846051454,0.3602180442601442,-0.2676853065133094
2024-12-04 21:48:54.983903200,10.2209033203125,0.3391524598777294,0.1000327381134033,-0.7163233925044536
2024-12-04 21:48:54.993938200,10.230938232421876,0.2341974629312753,-0.1798240677088499,-1.036747186514735
2024-12-04 21:48:55.003973000,10.24097314453125,0.1884890202015638,-0.2966010198742151,-1.0286550654739142
2024-12-04 21:48:55.014008300,10.25100830078125,0.0469511362671852,-0.1787865413546562,-0.9462205278933048
2024-12-04 21:48:55.024043300,10.261043212890623,-0.5881178683519364,-0.0806435625106096,-0.5894119998157024
2024-12-04 21:48:55.034077200,10.2710771484375,-0.7377969731658697,0.0454009842157363,-0.3127460989892482
2024-12-04 21:48:55.044112100,10.281112060546874,0.3082926267117262,0.1291430972635746,-0.804268802461028
2024-12-04 21:48:55.054147300,10.291147216796874,0.1898579704672098,0.1426753635317087,-0.7061708318024873
2024-12-04 21:48:55.064182300,10.301182373046874,-0.6387520770460366,0.0741904408484697,-0.0575333205580711
2024-12-04 21:48:55.074217200,10.31121728515625,-0.2458288640141487,-0.0462689992219209,0.0181055655330419
2024-12-04 21:48:55.084251100,10.321251220703124,-0.0654705432981252,-0.0971440309345722,0.0799473969399929
2024-12-04 21:48:55.094286000,10.3312861328125,-0.1583101550370454,0.0169815299391746,-0.1733329521238803
2024-12-04 21:48:55.104321300,10.3413212890625,0.2826630954146385,0.2085936505973339,-0.7235369771450758
2024-12-04 21:48:55.114356200,10.351356201171876,0.516045150309801,0.2820171987265348,-0.703081049093604
2024-12-04 21:48:55.124391400,10.361391357421876,0.0036807343393564,0.166425656953454,-0.704783761358261
2024-12-04 21:48:55.134425000,10.371425048828126,-0.3491220652282237,-0.0500508558481931,-0.8884352784007787
2024-12-04 21:48:55.144460300,10.381460205078126,0.1444943956524133,-0.2024965027660131,-0.8276052543848752
2024-12-04 21:48:55.154495200,10.3914951171875,0.2657803496748209,-0.2104448314219713,-0.6245102012038231
2024-12-04 21:48:55.164530200,10.4015302734375,0.2358060671716928,-0.1415700326383114,-0.7453828982502222
2024-12-04 21:48:55.174565400,10.4115654296875,0.4395592920005321,-0.1188794774025678,-0.7868021193534135
2024-12-04 21:48:55.184599000,10.42159912109375,0.0691810882538557,0.0194943895429372,-0.4572703052580356
2024-12-04 21:48:55.194634200,10.43163427734375,0.1179886660426855,0.1950654759824275,-0.3077420070916414
2024-12-04 21:48:55.204669200,10.441669189453124,-0.1903390319824218,0.2069832927912473,-0.0024041385322809
2024-12-04 21:48:55.214704400,10.451704345703124,-0.3382277462482452,0.1633008029311895,0.2365761747613549
2024-12-04 21:48:55.224739300,10.4617392578125,0.3355360229462385,0.2585813780814409,0.0061184828802943
2024-12-04 21:48:55.234773200,10.471773193359375,0.5255535678893327,0.4197913462132215,-0.076000705140829
2024-12-04 21:48:55.244808200,10.48180810546875,0.1335819564938545,0.3778402101904153,0.1262602353036403
2024-12-04 21:48:55.254843100,10.491843017578123,0.0878822815924882,0.1629103423088788,0.4222995296418667
2024-12-04 21:48:55.264878300,10.50187841796875,0.0798398449122905,0.0534790767312049,0.7076905887156725
2024-12-04 21:48:55.274913300,10.511913330078125,-0.0306570040702819,0.1180658229321241,0.6402668655231595
2024-12-04 21:48:55.284947200,10.521947265625,-0.0633662644952535,0.0484288076043128,0.6082666301503777
2024-12-04 21:48:55.294982100,10.531982177734376,0.4205617460638284,0.1374257724404335,0.662159256118536
2024-12-04 21:48:55.305017300,10.542017333984376,0.489112719720602,0.4056833258837461,0.7256456398621202
2024-12-04 21:48:55.315052300,10.55205224609375,0.336588746869564,0.476482955250144,0.7023217551589012
2024-12-04 21:48:55.325087200,10.562087158203123,0.8045119635671377,0.4309042763799429,0.6438891476735472
2024-12-04 21:48:55.335121200,10.57212109375,0.8732049760431051,0.4498047916829585,0.4680892209142446
2024-12-04 21:48:55.345156000,10.582156005859376,0.6377338399142026,0.510388731983304,0.3382444051221013
2024-12-04 21:48:55.355191300,10.59219140625,0.4970534495919942,0.4708464106678962,0.3381587726652622
2024-12-04 21:48:55.365226200,10.602226318359374,0.330152576342225,0.4063239618748426,0.5808993152752518
2024-12-04 21:48:55.375261200,10.61226123046875,0.266693957388401,0.3425432713598013,0.5951715862557292
2024-12-04 21:48:55.385295000,10.622295166015626,0.0188251119792461,0.2279290501862764,0.5995189678102731
2024-12-04 21:48:55.395330300,10.632330322265624,-0.192477797576785,0.1500169584661722,0.5279881015598774
2024-12-04 21:48:55.405365200,10.642365234375,-0.0858376240223646,0.023390812459588,0.3711190852418541
2024-12-04 21:48:55.415400200,10.652400146484377,0.2357026067972183,-0.0338023163586854,0.3937535263761877
2024-12-04 21:48:55.425435400,10.662435302734377,-0.172003749346733,-0.0958189198106527,0.3223933405175805
2024-12-04 21:48:55.435469000,10.672468994140624,-0.5667085850983857,-0.3875888662666082,-0.3897682561323046
2024-12-04 21:48:55.445504300,10.682504150390624,-0.6420008497089147,-0.5960048222094774,-0.2368079376906156
2024-12-04 21:48:55.455539200,10.692539306640626,-0.7631371661275624,-0.519361142989993,0.0792164523169398
2024-12-04 21:48:55.465574100,10.70257421875,-0.3758013978391885,-0.2261754845172166,-0.1901949473366141
2024-12-04 21:48:55.475609300,10.712609375,-0.7237298693686723,-0.0466208813995122,-0.2293447622030973
2024-12-04 21:48:55.485643300,10.722643310546877,-0.4788140285462141,-0.055944590061903,-0.1738976002693176
2024-12-04 21:48:55.495678200,10.73267822265625,-0.1486678819447755,0.0225870948612689,-0.0807534526258707
2024-12-04 21:48:55.505713200,10.742713134765625,-0.3824579331189394,0.0027893384575843,0.0441857632070779
2024-12-04 21:48:55.515748400,10.752748291015624,-0.6513987926512956,-0.1875485244810581,0.0744935154482722
2024-12-04 21:48:55.525783300,10.762783203125,-0.5777817677766084,-0.3026403000384569,-0.224160637563467
2024-12-04 21:48:55.535817200,10.772817138671876,-0.5375888735979795,-0.350186479589343,-0.3023562224000692
2024-12-04 21:48:55.545852200,10.78285205078125,-0.5935901622831821,-0.4342857355117797,-0.0008601239606738
2024-12-04 21:48:55.555887000,10.79288720703125,-0.5989379530519247,-0.475789127767086,0.3356123030528426
2024-12-04 21:48:55.565922300,10.80292236328125,-0.5481546912759542,-0.4319347884714603,0.055232057878375
2024-12-04 21:48:55.575957200,10.812957275390623,-0.3719850544214248,-0.3370914356946945,-0.2832303739085793
2024-12-04 21:48:55.585991200,10.8229912109375,-0.0500333201915025,-0.0167319390922784,-0.5917378124147653
2024-12-04 21:48:55.596026000,10.833026123046874,0.2045095961540937,0.2262216617465019,-0.9579206102982164
2024-12-04 21:48:55.606061300,10.843061279296874,0.2070288854986429,0.1814776801347732,-0.6295762524217366
2024-12-04 21:48:55.616096300,10.85309619140625,-0.1784282294362783,-0.1013473278433084,0.1848421881318092
2024-12-04 21:48:55.626131200,10.863131103515624,-0.1239227322667837,-0.4783697919100522,0.2883902408897876
2024-12-04 21:48:55.636165000,10.8731650390625,-0.030414427486062,-0.6594435674190521,0.0422018959134817
2024-12-04 21:48:55.646200000,10.883199951171877,-0.6066945585280656,-0.6411246513962745,-0.1035299325793981
2024-12-04 21:48:55.656235300,10.8932353515625,-0.8072913651525974,-0.5499900900095701,0.0191933607697486
2024-12-04 21:48:55.666270200,10.903270263671876,-0.7250000354349613,-0.3783078277021646,0.0010737667113542
2024-12-04 21:48:55.676305400,10.913305419921874,-0.6353910761803389,-0.2314817742317914,-0.0639946255266666
2024-12-04 21:48:55.686339000,10.923339111328126,-0.7228039866954088,-0.1472521699279546,0.1099216794431209
2024-12-04 21:48:55.696374300,10.933374267578126,-1.1333218931287523,-0.1283709438472986,0.3016369682148099
2024-12-04 21:48:55.706409200,10.9434091796875,-1.3541373119175433,-0.2710959917396306,0.2951625115036964
2024-12-04 21:48:55.716444200,10.953444091796875,-1.0050134931236503,-0.4462187498897313,0.1190326221376657
2024-12-04 21:48:55.726479400,10.963479248046877,-0.9164128341287374,-0.4433452402800321,-0.0456385923638939
2024-12-04 21:48:55.736513000,10.973512939453125,-1.0525666869372128,-0.4471428789973258,0.1057522848039865
2024-12-04 21:48:55.746548200,10.98354833984375,-0.6536772589772939,-0.4225158027410507,0.0615545388981699
2024-12-04 21:48:55.756583200,10.993583251953124,-0.6074240418463945,-0.4104302281498909,-0.0693590751692652
2024-12-04 21:48:55.766618400,11.003618408203126,-0.6867085909634828,-0.374513696116209,0.0875301071539521
2024-12-04 21:48:55.776653300,11.0136533203125,-0.862872967121005,-0.3905225816309451,0.22879881875813
2024-12-04 21:48:55.786687200,11.023687255859375,-1.0415320827037096,-0.3768587979376316,0.4128849278256297
2024-12-04 21:48:55.796722200,11.03372216796875,-1.500750014898181,-0.3976908658251166,0.6309454949483275
2024-12-04 21:48:55.806757000,11.043757080078125,-1.562733300602436,-0.401138375930488,0.9521195228040218
2024-12-04 21:48:55.816792300,11.053792236328125,-1.279944532981515,-0.3513479245841503,1.4281865907296538
2024-12-04 21:48:55.826827300,11.0638271484375,-1.025650622960925,-0.241494049680233,1.7045739668756723
2024-12-04 21:48:55.836861200,11.073861083984376,-0.8358148643255233,-0.1111044594869017,1.6083154866039753
2024-12-04 21:48:55.846896000,11.083896240234376,-0.7669184382319449,0.0617474311217665,1.3225649465680125
2024-12-04 21:48:55.856931300,11.093931396484376,-0.652649669495225,0.2645370716154575,1.3053478543072938
2024-12-04 21:48:55.866966300,11.10396630859375,-1.5069389326661824,0.4405161543339491,1.420209328240156
2024-12-04 21:48:55.877001200,11.114001220703123,-1.4953794277757406,0.3410471875831484,1.0469421250537037
2024-12-04 21:48:55.887035100,11.12403515625,-0.4316530489206314,0.0758107355266809,0.213778067497909
2024-12-04 21:48:55.897070000,11.134070068359376,-0.2467898180007934,0.0275470553562045,0.210240248760581
2024-12-04 21:48:55.907105300,11.144105224609374,0.0422346291393041,0.0917950711220502,0.8566495625615119
2024-12-04 21:48:55.917140000,11.154139892578126,0.0099964933574199,0.177235220259428,1.1044739843070506
2024-12-04 21:48:55.927175200,11.164175048828126,-0.6217723006725311,0.093136548858881,1.2659633539021014
2024-12-04 21:48:55.937209000,11.174208984375,-1.116920208904147,0.0794794871672987,1.607414738371968
2024-12-04 21:48:55.947244000,11.184244140625,-1.1491074912816286,-0.0505710803300142,1.9481623584866523
2024-12-04 21:48:55.957279000,11.194279052734377,-0.6186497847378254,-0.0824956201180815,1.942733903697133
2024-12-04 21:48:55.967314000,11.20431396484375,-0.2227180375397205,0.0966436801970005,1.963465141558647
2024-12-04 21:48:55.977349000,11.21434912109375,-0.2074398043870925,0.307146817677468,2.16333188034296
2024-12-04 21:48:55.987384000,11.224384033203124,-0.2702396671712398,0.497546201545,2.2994337107032536
2024-12-04 21:48:55.997418000,11.23441796875,-0.6668903762936592,0.6229705705463886,2.48795487960875
2024-12-04 21:48:56.007453000,11.244452880859376,-0.5853261918067931,0.6371855583816767,2.770166139602661
2024-12-04 21:48:56.017488100,11.254488037109375,-0.310029241245985,0.6323574075728654,2.609011116528511
2024-12-04 21:48:56.027523000,11.264523193359375,-0.4920283149063587,0.62736003767699,2.220115843838453
2024-12-04 21:48:56.037558000,11.27455810546875,-0.3629962768018245,0.757427556309104,1.9022686223179104
2024-12-04 21:48:56.047592000,11.284592041015625,-0.2421265023648738,0.6957310516569764,1.3881073860585689
2024-12-04 21:48:56.057627000,11.294626953125,0.18750760794878,0.5385920592911542,0.7350485512405633
2024-12-04 21:48:56.067662000,11.304662109375,0.4988339032679796,0.3677272508464753,0.0254547592520713
2024-12-04 21:48:56.077697000,11.314697021484376,0.6770739166557789,0.3193570050289854,-0.7954711634993553
2024-12-04 21:48:56.087732000,11.32473193359375,0.8221756305515766,0.5360561841379851,-1.5480489416897296
2024-12-04 21:48:56.097766000,11.334765869140623,1.0424573808550834,0.8026962193820625,-2.0472627841860054
2024-12-04 21:48:56.107801000,11.344801025390623,1.1239788952440022,1.0804980654358862,-2.3365420828700065
2024-12-04 21:48:56.117836000,11.3548359375,1.4157231227368114,1.3056677339114249,-2.67393513185978
2024-12-04 21:48:56.127871000,11.36487109375,1.9138497545182704,1.51056179933846,-2.8877152451843022
2024-12-04 21:48:56.137906200,11.37490625,2.201231110626459,1.7516931531861424,-2.7517104454576966
2024-12-04 21:48:56.147939800,11.38493994140625,2.091833162796497,2.005399034185708,-2.1040619452506304
2024-12-04 21:48:56.157975000,11.39497509765625,1.7113620195806023,2.272299327801168,-1.1601473562121392
2024-12-04 21:48:56.168010000,11.405010009765626,1.244565176564455,2.4177947171896697,-0.5677046103984117
2024-12-04 21:48:56.178045000,11.415044921875,0.9033218818873168,2.357073121984303,-0.4681991110295057
2024-12-04 21:48:56.188080000,11.425080078125,0.6001555121481418,2.177581208839267,-0.4205822043299674
2024-12-04 21:48:56.198115000,11.435114990234377,0.0053203182399272,2.0487534611351785,-0.5923778638839722
2024-12-04 21:48:56.208149000,11.44514892578125,-0.7631079400330781,2.0784268609955907,-1.5586509997248648
2024-12-04 21:48:56.218184000,11.455183837890624,-0.0236275438249111,1.7879973693631588,-1.3267191436380148
2024-12-04 21:48:56.228219100,11.46521923828125,1.4117565571933983,1.23027434701398,-0.2195762323826551
2024-12-04 21:48:56.238254000,11.475254150390626,2.020125770935416,0.8512979724004864,-0.0082294836848974
2024-12-04 21:48:56.248289000,11.4852890625,1.9405413620889185,0.8148058324359357,-0.7976666277170181
2024-12-04 21:48:56.258323000,11.495322998046875,1.625682800990343,0.817089121067524,-1.5986749670773743
2024-12-04 21:48:56.268358000,11.50535791015625,1.2232324656784537,0.7577629257433116,-2.091656637185812
