time,seconds_elapsed,z,y,x
2024-12-04 21:49:01.641937700,0.031937744140625,0.9307616774767636,-1.388069684396684,3.37374899585098
2024-12-04 21:49:01.651963600,0.041963623046875,0.8185434115290642,-1.3200517947033046,3.4662677050724624
2024-12-04 21:49:01.661989600,0.05198974609375,1.1089145971029997,-0.79196549346596,3.947744230826199
2024-12-04 21:49:01.672015600,0.062015625,1.104706624019146,-0.2138242447271943,4.549760860671102
2024-12-04 21:49:01.682041600,0.07204150390625,0.5539584091186524,0.1301268476039171,4.802683482338487
2024-12-04 21:49:01.692067600,0.082067626953125,0.4815776480406522,0.4709446103453636,4.6200601392999285
2024-12-04 21:49:01.702094600,0.092094482421875,0.1302057580590248,0.9284934402838348,3.428373443225026
2024-12-04 21:49:01.712120800,0.102120849609375,-0.2087853737771511,1.3867480804041028,2.612574069707096
2024-12-04 21:49:01.722146800,0.112146728515625,-0.4414022895187139,1.5945391824468969,2.4470439002886413
2024-12-04 21:49:01.732172800,0.1221728515625,-1.1378349866390227,2.4153838566556574,1.81429632435441
2024-12-04 21:49:01.742198800,0.13219873046875,-1.2446283049285412,3.759664960469305,1.0589394368395209
2024-12-04 21:49:01.752224800,0.142224853515625,-1.0796394027799368,5.289637854981423,-0.0644914691329002
2024-12-04 21:49:01.762250800,0.152250732421875,-0.8367810790091752,6.854907980585097,-1.6911340550661087
2024-12-04 21:49:01.772276700,0.16227685546875,-0.5442769730597734,8.119068668979406,-3.630892157822847
2024-12-04 21:49:01.782302700,0.172302734375,-0.5396066431611776,9.229736247229576,-5.82959871840775
2024-12-04 21:49:01.792329700,0.182329833984375,-0.593596007502079,9.64967255487144,-7.698529719269275
2024-12-04 21:49:01.802355700,0.192355712890625,-0.2115291195273399,9.559326513513922,-9.217969821590184
2024-12-04 21:49:01.812381700,0.202381591796875,0.3645405836343765,9.420918159776926,-10.285630617284774
2024-12-04 21:49:01.822407700,0.21240771484375,0.8414774201318621,9.391221525171398,-10.412712690365314
2024-12-04 21:49:01.832433700,0.22243359375,0.9960486809015272,9.354892320683598,-9.58122796419859
2024-12-04 21:49:01.842459600,0.232459716796875,0.6821610106617212,8.952391131967305,-7.494206585597992
2024-12-04 21:49:01.852485400,0.2424853515625,0.0754272891670465,7.911554045790433,-4.837586161154508
2024-12-04 21:49:01.862511400,0.252511474609375,-0.2476157474309205,6.325507674139738,-2.6607787131667138
2024-12-04 21:49:01.872537300,0.262537353515625,0.035048443962261,4.346752316729724,-1.174033842745423
2024-12-04 21:49:01.882564400,0.272564453125,0.6581015051603317,2.5873165865927934,-0.0722264472991228
2024-12-04 21:49:01.892590300,0.28259033203125,1.103911674249172,1.221088439387083,0.9168342744112016
2024-12-04 21:49:01.902616300,0.2926162109375,1.330072545719147,0.4178048485711216,2.1895272288292644
2024-12-04 21:49:01.912642300,0.302642333984375,1.384539464443922,-0.3586163081519306,3.455107136371732
2024-12-04 21:49:01.922668500,0.31266845703125,1.413981832027435,-1.0481363032743334,4.237699529075623
2024-12-04 21:49:01.932694500,0.322694580078125,1.2225521552640943,-1.4261414947681128,5.054034616905451
2024-12-04 21:49:01.942720500,0.332720458984375,0.6845020938951522,-2.285928332442045,5.248398666620254
2024-12-04 21:49:01.952746500,0.34274658203125,-0.5338881193839013,-3.411433998861909,4.791870119640231
2024-12-04 21:49:01.962772500,0.3527724609375,-2.046885767567157,-4.295643184000253,4.67956066827774
2024-12-04 21:49:01.972799200,0.36279931640625,-3.36618674390316,-5.437232554736733,4.232959056550264
2024-12-04 21:49:01.982825200,0.3728251953125,-4.14098453720808,-6.329651934337615,3.765818514662981
2024-12-04 21:49:01.992851200,0.382851318359375,-3.9865515158653255,-5.708312764385342,3.99316362748146
2024-12-04 21:49:02.002877200,0.392877197265625,-2.9732769748747345,-4.428142605954409,4.379368930435181
2024-12-04 21:49:02.012903400,0.4029033203125,-1.81655374789238,-3.826589209707081,4.32045555369556
2024-12-04 21:49:02.022929400,0.412929443359375,-1.2023533437788485,-3.879288534237445,3.896495397365093
2024-12-04 21:49:02.032955400,0.422955322265625,-0.9284650909721852,-3.3984032523751257,2.849775098368525
2024-12-04 21:49:02.042981400,0.4329814453125,-1.4617349323272704,-3.044067836412787,1.657085070469975
2024-12-04 21:49:02.053007400,0.44300732421875,-2.195420963042974,-3.0075264504790304,1.1953823357224465
2024-12-04 21:49:02.063034400,0.453034423828125,-2.2817817341566085,-2.587305480676889,1.1293144110530615
2024-12-04 21:49:02.073060400,0.463060302734375,-3.193753955489397,-1.7679829014688728,1.5300409913122652
2024-12-04 21:49:02.083086300,0.47308642578125,-4.107569758862256,-0.57451969724074,1.394099319949746
2024-12-04 21:49:02.093112300,0.4831123046875,-4.472482098418474,-0.1906590577170252,0.6870400148749352
2024-12-04 21:49:02.103138600,0.493138671875,-4.421304868888854,-0.7109077971965074,0.5405699352353811
2024-12-04 21:49:02.113164500,0.50316455078125,-4.797163549873233,-0.1019575686961412,1.2253396670907737
2024-12-04 21:49:02.123190500,0.5131904296875,-4.072481786607206,0.7500330621436238,3.562804710024595
2024-12-04 21:49:02.133216300,0.52321630859375,-2.924761950291693,2.332343462136388,4.863969725689292
2024-12-04 21:49:02.143242200,0.5332421875,0.1343146546825766,4.788732698397338,7.048182481497526
2024-12-04 21:49:02.153269200,0.543269287109375,3.58307914402932,6.645402475839853,10.654564467442036
2024-12-04 21:49:02.163295200,0.553295166015625,3.7577757857218383,5.581109695273637,11.11985324398279
2024-12-04 21:49:02.173321200,0.5633212890625,0.5467854487493634,1.4826239910989998,5.719851226487755
2024-12-04 21:49:02.183347200,0.57334716796875,0.1359381642311811,-1.4920505756139757,1.1600994254171848
2024-12-04 21:49:02.193373400,0.58337353515625,4.297055973407626,-2.657029589766264,1.4343372223138808
2024-12-04 21:49:02.203399400,0.5933994140625,5.004405201339721,-1.9168039281487463,4.2513621437251565
2024-12-04 21:49:02.213425400,0.60342529296875,2.288821131274104,-1.5057178664386273,6.370386095786095
2024-12-04 21:49:02.223451400,0.613451416015625,3.249500392630696,-3.562442306452989,7.690510663464665
2024-12-04 21:49:02.233477400,0.623477294921875,0.8602239139169454,-5.564311705207825,9.2946514947325
2024-12-04 21:49:02.243504400,0.63350439453125,-2.4895100000962613,-6.4925470790773625,9.516002335572242
2024-12-04 21:49:02.253530400,0.6435302734375,-3.246509101860225,-7.135774840232729,8.592191207885742
2024-12-04 21:49:02.263556400,0.653556396484375,-1.7150012528657912,-7.438743641573191,9.472948206743595
2024-12-04 21:49:02.273582300,0.663582275390625,-0.135251935532689,-7.117880871623754,9.560660976988077
2024-12-04 21:49:02.283608300,0.6736083984375,-1.2106868723601103,-6.3153761562258,10.758149929600954
2024-12-04 21:49:02.293634300,0.68363427734375,-4.521138285037875,-4.143604364317655,9.13355258575976
2024-12-04 21:49:02.303660300,0.693660400390625,-4.781031330239773,-0.5290338112205266,6.695786509165168
2024-12-04 21:49:02.313686300,0.703686279296875,-8.708053967815637,1.240706455309689,4.988791452622413
2024-12-04 21:49:02.323712300,0.713712158203125,-7.692186487722396,1.621950190333277,3.1697312748670576
2024-12-04 21:49:02.333738200,0.72373828125,-5.02059528864026,3.9817841553330418,0.6118827748209238
2024-12-04 21:49:02.343765200,0.73376513671875,-5.113787951600552,3.1432407428264617,-0.1754296321421861
2024-12-04 21:49:02.353791200,0.743791259765625,-1.2996528575360775,3.066565791685879,-3.527334752714634
2024-12-04 21:49:02.363817500,0.7538173828125,-0.1460416250944137,0.9990108917079864,-5.95408726786375
2024-12-04 21:49:02.373843500,0.763843505859375,-2.190501334558427,-0.7945638393960893,-7.122846969598531
2024-12-04 21:49:02.383869400,0.773869384765625,-2.0397604457318783,-0.2427350992498919,-6.867342514744401
2024-12-04 21:49:02.393895400,0.7838955078125,-1.5993629493415356,1.1982041882101446,-5.531315444535017
2024-12-04 21:49:02.403921400,0.79392138671875,-1.664170937077701,2.347262798848748,-5.698572291615605
2024-12-04 21:49:02.413947400,0.803947509765625,-1.2227961200878024,2.704606748977304,-7.309433371049165
2024-12-04 21:49:02.423973400,0.813973388671875,-1.5478551726832983,2.854495404888689,-8.737094184339046
2024-12-04 21:49:02.434000100,0.824000244140625,-1.5811460323885085,3.903255977541208,-8.70879397252798
2024-12-04 21:49:02.444026000,0.834026123046875,-2.0002493963375687,6.205420574513077,-6.891465733131766
2024-12-04 21:49:02.454052400,0.84405224609375,-2.373016833308339,8.304413545936345,-5.183325013685226
2024-12-04 21:49:02.464078300,0.854078369140625,-2.8430574805513023,8.388616262233256,-5.529940649050474
2024-12-04 21:49:02.474104300,0.864104248046875,-1.5490361991614103,8.681201032203436,-5.57011951470375
2024-12-04 21:49:02.484130300,0.87413037109375,-1.0424810539916156,8.646108676034212,-5.572612500563263
2024-12-04 21:49:02.494156300,0.88415625,0.2880181927070021,8.559902803221345,-5.134278950965404
2024-12-04 21:49:02.504182300,0.894182373046875,1.7857997131884098,8.910579696676134,-1.542986397603154
2024-12-04 21:49:02.514208300,0.904208251953125,3.856186183330416,8.309121869757771,2.03306182487607
2024-12-04 21:49:02.524235300,0.9142353515625,7.166096328738331,7.096541146475076,6.675868925774097
2024-12-04 21:49:02.534261200,0.92426123046875,9.853327580022812,4.809047756673396,8.076307970139384
2024-12-04 21:49:02.544287500,0.93428759765625,9.769391990229488,2.89915141595602,6.86447192774415
2024-12-04 21:49:02.554313500,0.9443134765625,8.38920838290751,2.5012740876480937,3.5421377695709464
2024-12-04 21:49:02.564339500,0.95433935546875,7.260779522517323,3.1159599371910094,-0.4559159680396318
2024-12-04 21:49:02.574365400,0.964365478515625,6.265996916028857,4.773107843764126,-5.060066882807016
2024-12-04 21:49:02.584391400,0.974391357421875,5.656520033305883,6.9054474967330695,-9.415690780517458
2024-12-04 21:49:02.594417400,0.98441748046875,4.871484923624992,8.66696090992689,-11.37040036869049
2024-12-04 21:49:02.604443400,0.994443359375,1.7772580948144197,9.544866026484966,-10.866055008524656
2024-12-04 21:49:02.614469400,1.004469482421875,-0.5842369352653622,8.824553856605291,-11.174115580046177
2024-12-04 21:49:02.624496000,1.01449609375,-1.8965759636342523,8.642217513814568,-10.898149936443566
2024-12-04 21:49:02.634522400,1.0245224609375,-3.6859801310554143,9.349847312253711,-9.675320790868996
2024-12-04 21:49:02.644548400,1.03454833984375,-6.525085074588656,9.393922016301753,-6.828039262881875
2024-12-04 21:49:02.654574300,1.04457421875,-9.539018469500542,8.612955178973078,-2.73825825868845
2024-12-04 21:49:02.664600300,1.054600341796875,-11.6849339356184,7.803173750570416,0.5368751723706722
2024-12-04 21:49:02.674626300,1.064626220703125,-13.234926997113227,6.765881789654493,3.7705285920500753
2024-12-04 21:49:02.684652300,1.07465234375,-13.53803900631666,6.2876592972606415,6.900655001759529
2024-12-04 21:49:02.694678300,1.08467822265625,-11.361306377130749,5.992088789477944,9.168031778466702
2024-12-04 21:49:02.704704300,1.094704345703125,-9.866786781054737,5.084540814328193,11.138892290973663
2024-12-04 21:49:02.714731500,1.1047314453125,-10.21700891647935,4.367587307226658,12.044889529550074
2024-12-04 21:49:02.724757500,1.114757568359375,-10.201616117036345,4.497326909078657,12.696257342541218
2024-12-04 21:49:02.734783500,1.124783447265625,-9.363916754138469,4.711326218111813,12.28285540510416
2024-12-04 21:49:02.744809500,1.1348095703125,-8.112876244080066,4.599519163313508,9.895651641011238
2024-12-04 21:49:02.754835500,1.14483544921875,-6.981515421891212,4.291629856705665,6.459034101054072
2024-12-04 21:49:02.764861400,1.154861328125,-6.685583095058798,4.379653008073568,3.649045069628954
2024-12-04 21:49:02.774887400,1.164887451171875,-5.733218657582998,5.157896557918191,2.443546998083592
2024-12-04 21:49:02.784913400,1.174913330078125,-4.845682666109502,5.167824077692628,2.5584482195049523
2024-12-04 21:49:02.794939400,1.184939453125,-1.4478423083141445,4.06045378742218,4.297613607290387
2024-12-04 21:49:02.804966400,1.19496630859375,3.90087492762357,2.7971359795928,4.95125462591052
2024-12-04 21:49:02.814992400,1.204992431640625,6.810715787637234,0.6910995193988084,6.369024159783125
2024-12-04 21:49:02.825018400,1.215018310546875,4.697556343695521,-2.365558333995938,4.900271457648277
2024-12-04 21:49:02.835044400,1.22504443359375,-0.7089172079011797,-4.434584037178754,2.5381828455895183
2024-12-04 21:49:02.845070300,1.2350703125,-2.795842724911868,-2.896357985845208,2.7736761935502288
2024-12-04 21:49:02.855096600,1.2450966796875,0.4805389526426792,-1.3583756801396607,6.013807284811139
2024-12-04 21:49:02.865122600,1.25512255859375,2.3678312473639846,-2.761460270577669,9.017049774360656
2024-12-04 21:49:02.875148800,1.265148681640625,4.475536225292086,-5.279930699959397,7.791364070311189
2024-12-04 21:49:02.885174800,1.2751748046875,5.4102516088306905,-7.494864757245779,5.021335877874494
2024-12-04 21:49:02.895200800,1.28520068359375,7.721112137955426,-8.258941250050068,3.7682770137310015
2024-12-04 21:49:02.905227800,1.295227783203125,7.459984582522511,-8.979338760125637,2.9698008231967687
2024-12-04 21:49:02.915253800,1.305253662109375,5.482631200864911,-9.183087893301249,1.4675129312068222
2024-12-04 21:49:02.925279700,1.31527978515625,4.037316072940826,-8.419902211856842,4.629330364209413
2024-12-04 21:49:02.935305500,1.325305419921875,1.263720543411374,-6.964812124371528,8.761915321862697
2024-12-04 21:49:02.945331500,1.33533154296875,-2.3554560421764847,-8.077502732881904,8.734428180000185
2024-12-04 21:49:02.955357700,1.345357666015625,-0.3569687236079946,-6.749554924231767,0.7694681227147578
2024-12-04 21:49:02.965383700,1.3553837890625,0.8936638267040252,-3.170145700886845,-3.0776170547932384
2024-12-04 21:49:02.975409700,1.36540966796875,0.9889794731676578,-0.7974819187998771,-5.273208113706112
2024-12-04 21:49:02.985435600,1.375435546875,-1.5919441975176334,1.327481360182166,-0.1855085430860519
2024-12-04 21:49:02.995461600,1.385461669921875,-2.3546283591806887,0.477872363781929,-0.4298018680959939
2024-12-04 21:49:03.005488600,1.395488525390625,0.9091679775670172,0.0573752073869109,-7.916728233557939
2024-12-04 21:49:03.015514600,1.4055146484375,-0.3744754099324345,2.3378820993021128,-2.4480752891629933
2024-12-04 21:49:03.025540600,1.41554052734375,-2.46759919706136,1.5035241557866337,-1.2128566176146267
2024-12-04 21:49:03.035566600,1.425566650390625,-3.641302492678165,-3.5526483499303456,7.111189849552511
2024-12-04 21:49:03.045592800,1.4355927734375,-4.436541893248259,-3.342363385245204,10.62130283383131
2024-12-04 21:49:03.055618800,1.445618896484375,-0.6550117224514485,-0.677670421244204,3.491144079914689
2024-12-04 21:49:03.065644800,1.455644775390625,1.4204086502045392,-1.358239486539364,1.3199006957948207
2024-12-04 21:49:03.075670800,1.4656708984375,2.194625721012056,0.1676625052720308,1.1885019285589455
2024-12-04 21:49:03.085696800,1.47569677734375,1.003129286812246,0.3724620242834091,1.3386112414836884
2024-12-04 21:49:03.095723500,1.4857236328125,0.7849544456601143,1.469887551383674,-1.7237199813723565
2024-12-04 21:49:03.105749500,1.49574951171875,-0.6004550796166062,0.9535328236680476,-3.1498727281868457
2024-12-04 21:49:03.115775500,1.505775390625,-2.134137642301619,2.5943638747558,-4.014632531967759
2024-12-04 21:49:03.125801500,1.515801513671875,-0.4363584501326084,4.391134187030792,-5.457332508957386
2024-12-04 21:49:03.135827700,1.52582763671875,0.9381938733041286,4.433558201262355,-6.792049665611982
2024-12-04 21:49:03.145853700,1.535853759765625,1.4830390016406774,4.32433385643363,-6.554335718992352
2024-12-04 21:49:03.155879700,1.545879638671875,0.0623030191779136,4.6516900800555945,-5.353377628964186
2024-12-04 21:49:03.165905700,1.55590576171875,-2.53967337640822,6.393052101102471,-6.277587400579452
2024-12-04 21:49:03.175931600,1.565931640625,-3.008276976585388,8.519847856208681,-6.032136137706041
2024-12-04 21:49:03.185957600,1.57595751953125,-2.2955267663925887,8.973623305088282,-3.915401173365116
2024-12-04 21:49:03.195984600,1.585984619140625,-1.5059303401455282,7.376760355868935,-1.8605828592330216
2024-12-04 21:49:03.206010600,1.5960107421875,0.738646867993474,6.475529893302917,1.543672626301646
2024-12-04 21:49:03.216036600,1.60603662109375,3.6111744809180495,5.487362321040034,3.676083298680186
2024-12-04 21:49:03.226062800,1.616062744140625,5.357852144029736,4.336684803962707,4.328275287535786
2024-12-04 21:49:03.236088800,1.6260888671875,6.490377918344736,3.1384704596847293,3.4625697273373603
2024-12-04 21:49:03.246114800,1.63611474609375,6.463596294403076,2.378933802267164,2.267170440480113
2024-12-04 21:49:03.256140800,1.646140869140625,6.182475167733431,2.851830861854553,0.553158783173561
2024-12-04 21:49:03.266166800,1.656166748046875,4.69828582701385,3.828422854875028,-2.0973282530814408
2024-12-04 21:49:03.276192800,1.66619287109375,3.5798096208393573,5.350597058334946,-4.559479998391867
2024-12-04 21:49:03.286219500,1.676219482421875,1.8734101921021933,7.304908002579212,-6.4124026982605455
2024-12-04 21:49:03.296245500,1.68624560546875,-1.000958080253005,8.703724998700618,-8.64286574859023
2024-12-04 21:49:03.306271700,1.696271728515625,-1.4350971007704734,9.200583217981457,-10.55796404186487
2024-12-04 21:49:03.316297700,1.706297607421875,-1.736840744230151,8.084794643455743,-10.460956789052483
2024-12-04 21:49:03.326323700,1.71632373046875,-3.029244361290336,7.214448563975095,-9.354301369053124
2024-12-04 21:49:03.336349700,1.726349609375,-3.974811978232861,6.799874075627327,-7.854289020779729
2024-12-04 21:49:03.346375700,1.736375732421875,-5.372937484958768,6.363562387245893,-5.88131546164155
2024-12-04 21:49:03.356401700,1.746401611328125,-8.176049031829834,5.738839420074224,-2.107952522948384
2024-12-04 21:49:03.366427600,1.756427734375,-11.257899778670073,5.014210556039214,1.6839181323379278
2024-12-04 21:49:03.376453600,1.76645361328125,-12.277030059951542,4.620026821552217,4.64531820693612
2024-12-04 21:49:03.386480600,1.776480712890625,-13.439299230623243,4.403804575772583,7.515875981092453
2024-12-04 21:49:03.396507000,1.7865068359375,-14.76927708379626,4.135102201171219,10.614688384127616
2024-12-04 21:49:03.406532900,1.796532958984375,-13.542344594556091,3.387302012646198,13.39596394676566
2024-12-04 21:49:03.416558800,1.806558837890625,-9.390503147768973,2.9636738647490737,14.691094942963122
2024-12-04 21:49:03.426584800,1.816584716796875,-4.587555169275403,2.904506220987439,13.034288689434527
2024-12-04 21:49:03.436610800,1.82661083984375,-1.5120459004163742,2.323725271394849,11.531299371176958
2024-12-04 21:49:03.446636800,1.83663671875,2.866440986487269,1.1530676270842553,10.551056162172555
2024-12-04 21:49:03.456662500,1.84666259765625,9.330075859335064,-0.6052963821679354,8.541921740850805
2024-12-04 21:49:03.466688500,1.8566884765625,6.761173465833068,-2.374288752940297,5.522892484104633
2024-12-04 21:49:03.476714500,1.866714599609375,2.238060227460414,-2.6938848639547825,2.379731236255169
2024-12-04 21:49:03.486741800,1.87674169921875,0.4507862039357423,-1.9683330398559569,0.6974924353063107
2024-12-04 21:49:03.496767700,1.886767822265625,-0.6361562153339385,-0.3913847514182328,0.8103571824640036
2024-12-04 21:49:03.506793700,1.896793701171875,-2.148184580093622,1.0937620361566542,2.26320329041481
2024-12-04 21:49:03.516819700,1.90681982421875,-2.934122191572189,1.997694743418693,1.915786860060692
2024-12-04 21:49:03.526845700,1.916845703125,-2.361103108152747,1.359764504149556,0.5421855537384748
2024-12-04 21:49:03.536871700,1.92687158203125,0.305756386232376,-1.6130208878159522,-0.2126619229495525
2024-12-04 21:49:03.546897700,1.936897705078125,1.0869830435410142,-3.3382986200243234,-1.1602432178020476
2024-12-04 21:49:03.556923600,1.946923583984375,0.6813055628761648,-3.530274313297868,0.1937023709356784
2024-12-04 21:49:03.566949600,1.95694970703125,0.9805559282153844,-2.713389190369844,2.6701538597553967
2024-12-04 21:49:03.576977000,1.966976806640625,0.9388099593758582,-2.4169272867053744,4.276929715701938
2024-12-04 21:49:03.587003000,1.9770029296875,1.196263210210204,-3.2995413116067644,3.5400223848521706
2024-12-04 21:49:03.597028600,1.987028564453125,3.34927126493752,-4.055429821780324,2.7792285669803616
2024-12-04 21:49:03.607054600,1.9970546875,4.287224607484043,-3.761410050570965,2.5286077925145625
2024-12-04 21:49:03.617080600,2.00708056640625,3.294127469864488,-3.471374380561709,1.9352526080310344
2024-12-04 21:49:03.627106600,2.0171064453125,2.405907880041003,-3.369454221266508,1.7350901011705395
2024-12-04 21:49:03.637132500,2.027132568359375,2.1527640168383715,-2.8937603705674406,2.1563824995964764
2024-12-04 21:49:03.647158500,2.037158447265625,1.5994781001538037,-2.82967982032299,2.665743057575822
2024-12-04 21:49:03.657184500,2.0471845703125,1.0106044449985028,-3.505519811269641,3.077010905593633
2024-12-04 21:49:03.667210500,2.05721044921875,1.5713818864822386,-4.158280539923906,2.8522441188305616
2024-12-04 21:49:03.677237800,2.06723779296875,1.217179449249804,-3.753318514052033,2.1621055534183977
2024-12-04 21:49:03.687263700,2.077263671875,-0.5004606276869774,-2.5819600279957053,2.6459207512527705
2024-12-04 21:49:03.697289700,2.087289794921875,-0.1409860952705144,-1.075332645496726,2.833711852318048
2024-12-04 21:49:03.707315700,2.097315673828125,1.2422180289164184,-0.1297925010830163,0.9079729225635528
2024-12-04 21:49:03.717341700,2.107341796875,1.0579578784562649,-0.1159989535301923,-0.8392623744308948
2024-12-04 21:49:03.727367700,2.11736767578125,2.3400147274166345,0.3901081556111574,-1.797184446033835
2024-12-04 21:49:03.737393700,2.1273935546875,2.8503245489448306,0.5170154566466808,-1.1848463286608455
2024-12-04 21:49:03.747419600,2.137419677734375,1.5231949248097836,-0.1349824709415435,1.3991542652517557
2024-12-04 21:49:03.757445600,2.147445556640625,0.227711608043313,-0.5382002834945917,3.067477353572845
2024-12-04 21:49:03.767471900,2.157471923828125,-0.6354525971092283,0.0869283418685197,2.892868390163779
2024-12-04 21:49:03.777497900,2.167497802734375,-2.188978362774849,0.166591661170125,0.8205851464897393
2024-12-04 21:49:03.787524600,2.177524658203125,-1.407723356154561,0.8075523541763424,-2.701023045271635
2024-12-04 21:49:03.797550600,2.187550537109375,0.5489443803489208,2.424292847037316,-4.671892910128832
2024-12-04 21:49:03.807576600,2.19757666015625,0.9894979440838098,2.264609650081396,-5.399918430864811
2024-12-04 21:49:03.817602600,2.2076025390625,1.6075895104169844,1.161548162920773,-4.832700727200508
2024-12-04 21:49:03.827628500,2.217628662109375,1.205274784183502,0.776526809054613,-4.154628447157144
2024-12-04 21:49:03.837654500,2.227654541015625,0.5447007514297962,0.9688713356405496,-3.669405136090517
2024-12-04 21:49:03.847680000,2.237679931640625,0.0888275265533477,0.463215185137093,-1.899291652333736
2024-12-04 21:49:03.857706000,2.2477060546875,-0.2053005273360759,-0.4238610798701643,-0.3246913883268833
2024-12-04 21:49:03.867732000,2.25773193359375,-0.9615209728777409,-1.9539631537199016,2.2571581650316714
2024-12-04 21:49:03.877759000,2.267759033203125,-2.3405331983327864,-1.856525985057652,7.742823034504055
2024-12-04 21:49:03.887785200,2.27778515625,-2.0144646764338017,1.5983406205564736,4.378893129616976
2024-12-04 21:49:03.897811200,2.287811279296875,0.2411550269842147,2.40717249314934,0.2182107892483472
2024-12-04 21:49:03.907837200,2.297837158203125,0.3587583469711244,1.2158318340331316,-0.9873147548258304
2024-12-04 21:49:03.917863200,2.30786328125,-0.5765929963834583,1.3422040052786468,-2.1211603795677423
2024-12-04 21:49:03.927889200,2.31788916015625,-0.5110696999847889,1.7936156476363538,-0.807629803326726
2024-12-04 21:49:03.937915100,2.3279150390625,-1.349291771582514,1.870315733218193,-0.0226046305179595
2024-12-04 21:49:03.947941000,2.337941162109375,-1.83194552442208,1.910331955655664,-0.5228343720585108
2024-12-04 21:49:03.957967000,2.347967041015625,-1.6838522274948655,1.8660395172037183,-1.0721814879894256
2024-12-04 21:49:03.967993000,2.3579931640625,-1.4475041624009608,1.614943526441604,-2.3116683383762835
2024-12-04 21:49:03.978020000,2.36802001953125,-0.8429837330415845,1.5540978664651512,-2.5999492736727
2024-12-04 21:49:03.988046000,2.378046142578125,-0.3269675165653228,2.0249185581699014,-2.474118661957979
2024-12-04 21:49:03.998072000,2.388072021484375,0.0826161777578294,2.7144810772597787,-2.657567349904776
2024-12-04 21:49:04.008098000,2.39809814453125,0.1962576083764433,2.913181110352278,-2.746816243675351
2024-12-04 21:49:04.018124000,2.4081240234375,0.1556239846929907,2.939609975333512,-2.3364970746845004
2024-12-04 21:49:04.028150000,2.41814990234375,0.6273524388924241,3.154814568503201,-2.192312475633621
2024-12-04 21:49:04.038176000,2.428176025390625,1.1891738364711404,3.2048908510535954,-2.381711596417427
2024-12-04 21:49:04.048202000,2.438201904296875,1.1440168901443482,2.9923493396133183,-2.484718966427445
2024-12-04 21:49:04.058228000,2.44822802734375,0.6521499032795429,2.4936168508932,-3.3060803579866884
2024-12-04 21:49:04.068254000,2.45825390625,-0.6224925777710973,2.371930060984939,-2.473129650920629
2024-12-04 21:49:04.078280000,2.468280029296875,-3.4348034762725232,2.656297768360376,-0.229492646241188
2024-12-04 21:49:04.088307200,2.47830712890625,-5.821850880759954,3.333771205727756,0.9035819941282272
2024-12-04 21:49:04.098333200,2.488333251953125,-4.707030566744506,2.296208318915963,1.78854053632915
2024-12-04 21:49:04.108359200,2.498359130859375,-3.4445196913838383,-0.2817281526520848,3.9584792675912377
2024-12-04 21:49:04.118385200,2.50838525390625,-6.991200949603319,0.1763496695965528,2.7668583302289247
2024-12-04 21:49:04.128411100,2.5184111328125,-7.252456515330076,1.6019547194004058,3.769473530039191
2024-12-04 21:49:04.138437000,2.52843701171875,-0.14438859719038,-0.0718409551128745,4.571714626064896
2024-12-04 21:49:04.148463000,2.538463134765625,1.5332229823492467,-1.6526029566198586,1.2171785724669697
2024-12-04 21:49:04.158489000,2.548489013671875,1.649435432499647,-1.1094617095917465,1.530079569756985
2024-12-04 21:49:04.168515300,2.558515380859375,1.3451872588731348,-0.4751709958687424,3.08134455088377
2024-12-04 21:49:04.178541000,2.568541015625,2.355398759031296,-2.131843686145544,4.770049917498231
2024-12-04 21:49:04.188568000,2.578568115234375,3.1377146728813647,-4.147944731609523,5.249386508613824
2024-12-04 21:49:04.198594000,2.588593994140625,5.390782353729009,-4.746633970597386,5.016083948695659
2024-12-04 21:49:04.208620000,2.5986201171875,6.170417650192976,-4.57516710460633,3.924461262655258
2024-12-04 21:49:04.218646000,2.60864599609375,6.04543517974019,-4.369255824960768,2.09505504745245
2024-12-04 21:49:04.228672000,2.618672119140625,6.088565880936383,-3.872296191132069,0.5263596235752105
2024-12-04 21:49:04.238698000,2.628697998046875,4.869285952275991,-3.614849370038509,-0.7685369793444872
2024-12-04 21:49:04.248724000,2.638723876953125,3.216560830581188,-3.718061030448973,-1.2337269716858863
2024-12-04 21:49:04.258750200,2.648750244140625,2.789437826305628,-3.238280787219107,-1.0424866069495675
2024-12-04 21:49:04.268776200,2.658776123046875,2.7740754220008847,-2.6372426470175383,-0.5162561627119779
2024-12-04 21:49:04.278802200,2.66880224609375,2.773424264615774,-2.64497879422754,-0.5025204828262329
2024-12-04 21:49:04.288829200,2.6788291015625,2.4429298890985547,-2.268964045898616,-0.8268126427024602
2024-12-04 21:49:04.298855200,2.688855224609375,1.785109685097635,-1.4517802322849631,-1.3105606205195188
2024-12-04 21:49:04.308881200,2.698881103515625,1.5392928037822249,-1.42627286606282,-1.8003975628614424
2024-12-04 21:49:04.318907100,2.7089072265625,1.3304209207654,-1.6377695446252822,-1.2956202410191298
2024-12-04 21:49:04.328933000,2.71893310546875,1.3626733773335813,-1.9363612999252973,-0.396660645994544
2024-12-04 21:49:04.338959000,2.728958984375,1.1693147052690387,-1.7596036340497434,1.9526941566973923
2024-12-04 21:49:04.348985000,2.738985107421875,0.0567813331469893,-0.8496918523781001,2.8665584753870963
2024-12-04 21:49:04.359011000,2.749010986328125,1.7694418681055306,-2.524749948042631,2.818949167472124
2024-12-04 21:49:04.369037000,2.759037109375,1.4077575506851077,-4.296176852485537,5.9519233678281305
2024-12-04 21:49:04.379063000,2.76906298828125,1.5323106898099184,-2.1571255730487406,5.689377762290835
2024-12-04 21:49:04.389090000,2.779090087890625,3.2508111829683184,0.4902531219273805,2.4414988333821297
2024-12-04 21:49:04.399116000,2.789115966796875,3.336523427045345,0.6507764960344881,-0.0831727887272834
2024-12-04 21:49:04.409142000,2.79914208984375,2.04964237279892,0.0321523571945726,-0.6687345428556204
2024-12-04 21:49:04.419168000,2.80916796875,0.2578776137262583,-0.660467649769783,2.136536812397837
2024-12-04 21:49:04.429194000,2.819194091796875,0.000378477923572,-0.2915514813996851,5.153941098290682
2024-12-04 21:49:04.439220200,2.82922021484375,0.3607292086526751,-0.864571149341017,5.448245531660318
2024-12-04 21:49:04.449246200,2.83924609375,1.3428206758722665,-1.456097510962188,4.859342065888643
2024-12-04 21:49:04.459272200,2.849272216796875,2.990898848544061,-0.5798502446137368,4.820316461923718
2024-12-04 21:49:04.469298200,2.859298095703125,3.054021951933205,0.2779286142386495,5.189312271401286
2024-12-04 21:49:04.479324200,2.86932421875,0.7906663935661316,0.8541020700357854,5.386313683882356
2024-12-04 21:49:04.489350100,2.87935009765625,-0.3190457836553454,3.853571032395959,4.611794122996926
2024-12-04 21:49:04.499377000,2.889376953125,-2.013896813417971,7.109393613785505,0.3651952481508255
2024-12-04 21:49:04.509403000,2.89940283203125,-2.5007281442031264,9.04915814628303,-3.191407100102305
2024-12-04 21:49:04.519429000,2.90942919921875,-4.223655513893068,9.9095223454535,-4.182253536185622
2024-12-04 21:49:04.529455000,2.919455078125,-7.132953353071212,9.983902755916118,-3.4414334158062934
2024-12-04 21:49:04.539481000,2.929481201171875,-8.555851482003927,10.3461590280056,-3.2836738803893324
2024-12-04 21:49:04.549507000,2.939507080078125,-6.694171475183963,10.542360814541578,-3.1635277440518137
2024-12-04 21:49:04.559533000,2.949532958984375,-2.760278659577668,9.795186356699466,-3.776473179668188
2024-12-04 21:49:04.569559000,2.95955908203125,0.2572892924442887,8.58878227622509,-5.54794567681849
2024-12-04 21:49:04.579585000,2.9695849609375,3.1263103585526344,7.757816605496406,-6.560819820314645
2024-12-04 21:49:04.589611000,2.979611083984375,5.817216791218519,6.87954148658216,-5.816351698821783
2024-12-04 21:49:04.599638000,2.989637939453125,7.6556813421458,5.524499334779382,-3.717561556494236
2024-12-04 21:49:04.609664300,2.999664306640625,7.572274744662642,4.722817918463051,-1.23275023560822
2024-12-04 21:49:04.619690200,3.009690185546875,6.03508446611762,4.597471583133936,0.4606903428345918
2024-12-04 21:49:04.629716200,3.01971630859375,3.8734474069938063,4.2572237292349335,0.1408393802762031
2024-12-04 21:49:04.639742200,3.0297421875,3.006807780815661,3.7806098410815,-1.6290514006406067
2024-12-04 21:49:04.649768200,3.039768310546875,2.332051785713434,3.632399347515404,-2.3478052351623773
2024-12-04 21:49:04.659794200,3.049794189453125,0.8026771493554115,3.930734936097264,-0.939506124946475
2024-12-04 21:49:04.669820200,3.059820068359375,-2.821258028936386,4.084080746725201,2.587282099801302
2024-12-04 21:49:04.679846100,3.06984619140625,-8.196737599593401,2.9116011476844545,5.81370849083662
2024-12-04 21:49:04.689872100,3.0798720703125,-9.871250190204382,1.5797496095940469,6.998144485130906
2024-12-04 21:49:04.699899100,3.089899169921875,-8.840808241313695,1.937916566543281,5.998893793317675
2024-12-04 21:49:04.709925000,3.099925048828125,-7.562738270032406,2.297493390290439,4.215486528223753
2024-12-04 21:49:04.719951000,3.109951171875,-5.500581283575296,2.0545158240541816,3.316208368769288
2024-12-04 21:49:04.729977000,3.11997705078125,-4.064294096237421,1.0849281568378208,2.734464711624384
2024-12-04 21:49:04.740003000,3.130003173828125,-2.032322989207506,-0.4901847328662872,2.410568857589364
2024-12-04 21:49:04.750029000,3.140029052734375,0.1412789407372474,-1.928673229640722,3.071169193828106
2024-12-04 21:49:04.760055000,3.150054931640625,-1.1766495782017707,-3.3012218120396137,4.691525831359624
2024-12-04 21:49:04.770081000,3.1600810546875,-0.3079027506113052,-4.149280071866512,4.917403209713101
2024-12-04 21:49:04.780107000,3.17010693359375,-2.3047265564143657,-4.337169957131147,5.439213499420881
2024-12-04 21:49:04.790133000,3.180133056640625,-1.764153698569536,-5.035695242616534,7.114066866293549
2024-12-04 21:49:04.800160300,3.19016015625,6.366005104222893,-6.364219389849901,7.606172338089347
2024-12-04 21:49:04.810186200,3.200186279296875,16.23157783331275,-9.020519496297837,4.579930665746331
2024-12-04 21:49:04.820212200,3.210212158203125,16.566169853407143,-9.64159446235597,1.3950871619433165
2024-12-04 21:49:04.830238200,3.22023828125,6.790715202137828,-6.684451460680365,0.3018827596694231
2024-12-04 21:49:04.840264200,3.23026416015625,2.3370453562170264,-4.153783228504658,-0.1224041443973779
2024-12-04 21:49:04.850290200,3.240290283203125,2.4030869774013754,-2.201603451070189,-1.6832324881613254
2024-12-04 21:49:04.860316200,3.250316162109375,3.440011858570576,-1.502077464109659,-2.6795576479166745
2024-12-04 21:49:04.870342100,3.260342041015625,3.3097955791175364,-1.562947527875006,-2.551169752934575
2024-12-04 21:49:04.880367900,3.270367919921875,2.147163858743757,-1.6328864487588404,-0.6661369275778531
2024-12-04 21:49:04.890393900,3.280393798828125,2.1827298237741,-1.855179538884759,2.6117612920194864
2024-12-04 21:49:04.900419800,3.290419921875,0.9204559720396996,-2.228769398154318,5.601121386688948
2024-12-04 21:49:04.910447000,3.300447021484375,-0.2271536818996071,-2.599046771875024,8.043761791321634
2024-12-04 21:49:04.920473000,3.31047314453125,0.8430605976700782,-2.9355796969041226,10.048045850002763
2024-12-04 21:49:04.930499000,3.3204990234375,0.1165570258043706,-1.012130923913419,5.828206971788406
2024-12-04 21:49:04.940525000,3.330525146484375,0.0059948565006256,0.7396048993706703,4.108250726863742
2024-12-04 21:49:04.950551000,3.340551025390625,-0.540471443296969,0.9001704321190714,2.6470447868466374
2024-12-04 21:49:04.960577000,3.350576904296875,-0.5355426085926592,1.5905229325428605,-4.011218924131989
2024-12-04 21:49:04.970603000,3.36060302734375,-2.3822286060288547,4.487601049356162,-4.560585329285264
2024-12-04 21:49:04.980629000,3.37062890625,-4.772162087346613,4.749960192410647,-4.093935785785317
2024-12-04 21:49:04.990655000,3.380655029296875,-3.9393151329159735,3.301475494539737,-3.042274523255229
2024-12-04 21:49:05.000681200,3.39068115234375,-1.5510264961957931,1.713337557437271,-5.6619122477382415
2024-12-04 21:49:05.010708000,3.4007080078125,2.152699427169561,2.0980361090898514,-7.467717222601175
2024-12-04 21:49:05.020734000,3.41073388671875,2.692089212709665,2.026279178998619,-7.339399470245838
2024-12-04 21:49:05.030760000,3.420760009765625,3.3532363691762086,1.534114524361491,-6.646092796191573
2024-12-04 21:49:05.040786000,3.430785888671875,4.136718404196203,1.3038166992172595,-5.184155619290471
2024-12-04 21:49:05.050812000,3.44081201171875,1.9961030903130768,0.629463731957972,-3.7272804019540544
2024-12-04 21:49:05.060838000,3.450837890625,-0.2014882025063037,-0.7579781759291887,-1.6835580668538808
2024-12-04 21:49:05.070864000,3.46086376953125,2.775261709176004,-1.370272892551869,-0.2935661822229624
2024-12-04 21:49:05.080889900,3.470889892578125,6.195868902313709,-2.200472108952701,-1.229443595278263
2024-12-04 21:49:05.090916000,3.480916015625,4.697916701440513,-1.5512899694375692,-2.288722347074747
2024-12-04 21:49:05.100942000,3.490942138671875,3.0767461171776054,-0.0993202059298753,-0.7811714199900627
2024-12-04 21:49:05.110968000,3.500968017578125,1.4813298596352338,1.4548461957268417,-1.530289413115382
2024-12-04 21:49:05.120995000,3.5109951171875,-0.6601645751699805,2.731499432078004,-2.057637463206053
2024-12-04 21:49:05.131021000,3.52102099609375,-1.827215719421208,3.010103607490658,-2.334734741187096
2024-12-04 21:49:05.141047000,3.531047119140625,-2.005950238327682,2.3362645811028777,-2.6947493718296287
2024-12-04 21:49:05.151073000,3.541072998046875,-1.5372063528969884,1.0652882213443515,-2.548675598031282
2024-12-04 21:49:05.161099000,3.55109912109375,-0.1533493177592754,-0.2562522044815123,-1.7447890728861093
2024-12-04 21:49:05.171125000,3.561125,0.059060968516767,-0.9947858213588596,0.3911936127603054
2024-12-04 21:49:05.181151200,3.571151123046875,-0.4406292593196034,-1.2303037192389368,3.367093921875953
2024-12-04 21:49:05.191177200,3.58117724609375,-1.5866674261584877,-0.4996171626001596,4.214691578453779
2024-12-04 21:49:05.201203200,3.591203125,-3.196968533621728,1.2244625919952987,2.5411311740010976
2024-12-04 21:49:05.211229200,3.601229248046875,-4.6166555915534495,3.018805677123368,1.3952712863385677
2024-12-04 21:49:05.221256000,3.611255859375,-4.810450316947699,3.477784832125902,1.154602581566572
2024-12-04 21:49:05.231282000,3.621281982421875,-3.8092993444710967,2.3844781385213136,1.5063362905979156
2024-12-04 21:49:05.241308000,3.631307861328125,-2.997066431263089,1.345204648399353,2.256754844927788
2024-12-04 21:49:05.251334000,3.641333984375,-2.612735105487704,1.2885133316233754,2.801624523183704
2024-12-04 21:49:05.261359900,3.65135986328125,-2.146100759556889,1.5356041783973573,3.2706723599970338
2024-12-04 21:49:05.271386000,3.66138623046875,-3.201140850870311,1.9013982692241669,2.291522206926346
2024-12-04 21:49:05.281412000,3.671412109375,-5.413785628175735,3.0847952758595345,1.1937480125188826
2024-12-04 21:49:05.291438000,3.68143798828125,-3.103144879281521,1.5726616971597074,-0.5321785389870405
2024-12-04 21:49:05.301464000,3.691464111328125,-0.2178489701986312,-0.3004880904406309,-1.292547409445047
2024-12-04 21:49:05.311490000,3.701489990234375,1.4071218831300734,-0.6408297601029277,-1.4698381592839955
2024-12-04 21:49:05.321516000,3.71151611328125,1.9082754615172743,-0.3597977730214595,-2.401345686692
2024-12-04 21:49:05.331543000,3.72154296875,2.882948469173908,0.1050759929776191,-2.293392092451453
2024-12-04 21:49:05.341569000,3.731569091796875,4.5964109681651,0.9997639020323752,-0.720677496060729
2024-12-04 21:49:05.351595300,3.74159521484375,6.239619196712971,2.2277257343202828,0.475261304500699
2024-12-04 21:49:05.361621200,3.751621337890625,6.437598514315486,2.712269830951094,0.799494427666068
2024-12-04 21:49:05.371647200,3.761647216796875,5.2940094941943885,1.9842104079455136,0.4316875357121228
2024-12-04 21:49:05.381673200,3.771673095703125,2.578159466668964,0.1799164221674203,0.664195730382204
2024-12-04 21:49:05.391699200,3.78169921875,0.66791445864439,-1.6930799284368752,1.666015395900607
2024-12-04 21:49:05.401725000,3.791724853515625,-0.1472954245477914,-3.0030688865482804,3.029558834066987
2024-12-04 21:49:05.411751000,3.8017509765625,-1.1018255156248806,-3.870087867432833,3.960906202477216
2024-12-04 21:49:05.421777000,3.81177685546875,-2.5195178926080466,-4.801275661367177,4.020200102967023
2024-12-04 21:49:05.431804000,3.821803955078125,-2.407741232948005,-4.675448556783795,3.63905559053421
2024-12-04 21:49:05.441830100,3.831830078125,-1.5418220299988985,-4.115477170985937,4.118147851499915
2024-12-04 21:49:05.451856100,3.841856201171875,0.2413113865897059,-3.958440104624629,2.879988450324535
2024-12-04 21:49:05.461882000,3.851882080078125,2.188193934398889,-3.836581903672218,-0.849413181567192
2024-12-04 21:49:05.471908000,3.861908203125,3.466517588180303,-3.265275469389558,-3.6812352746158834
2024-12-04 21:49:05.481934000,3.87193408203125,1.921215899372101,-1.3138023789197206,-6.414210039943456
2024-12-04 21:49:05.491960000,3.8819599609375,0.3311035934567451,1.0555527170106769,-7.240843234425783
2024-12-04 21:49:05.501986000,3.891986083984375,-0.4336445149987936,2.834091207024455,-6.512002305653691
2024-12-04 21:49:05.512012000,3.902011962890625,-0.6620756694883108,4.171645340670645,-4.968941673770547
2024-12-04 21:49:05.522038000,3.9120380859375,-1.17072018815279,3.9299206971049294,-2.993586772453785
2024-12-04 21:49:05.532065300,3.922065185546875,-2.00103937767148,2.122124256163836,-0.991371921262145
2024-12-04 21:49:05.542091000,3.932091064453125,-2.759054963001609,2.024614606787264,0.0260959797650575
2024-12-04 21:49:05.552117000,3.942116943359375,-3.1321687291920184,3.100857352866232,0.3770300628513097
2024-12-04 21:49:05.562143000,3.95214306640625,-3.0734190185815096,4.15224827402234,0.9773176769465208
2024-12-04 21:49:05.572169000,3.9621689453125,-1.6952935128331184,5.243634813219309,1.3813748629331588
2024-12-04 21:49:05.582195000,3.97219482421875,-0.3703244277328252,5.375557896590233,1.240288814419508
2024-12-04 21:49:05.592221000,3.982220947265625,0.61672027797997,3.488820020881295,0.1171557223498821
2024-12-04 21:49:05.602247000,3.992246826171875,2.1246137348920104,1.0347472448691726,-0.7641045498549938
2024-12-04 21:49:05.612273000,4.00227294921875,3.2388018884837626,-1.7898641861483453,-1.43351830714643
2024-12-04 21:49:05.622299000,4.012298828125,3.161751966550946,-4.456410669061541,-0.9178378984957932
2024-12-04 21:49:05.632324900,4.022324951171875,1.457311855188012,-5.468902535241842,-0.91566172350049
2024-12-04 21:49:05.642352000,4.03235205078125,-0.2129477541536092,-6.064100132721662,-1.7882389230340718
2024-12-04 21:49:05.652378000,4.042378173828125,-1.4283639931231735,-6.477730033695697,-3.2782132768958805
2024-12-04 21:49:05.662404000,4.052404052734375,-3.938887262892723,-6.339663625264167,-3.8621012525931
2024-12-04 21:49:05.672430000,4.06243017578125,-8.728946533718705,-3.675732001024485,-2.846305084170401
2024-12-04 21:49:05.682456000,4.0724560546875,-12.524499092388153,-0.8342179505228996,-2.286871750772
2024-12-04 21:49:05.692482000,4.08248193359375,-6.684343324130773,3.5437212393701074,-0.2311743157178163
2024-12-04 21:49:05.702508000,4.092508056640625,16.121829172348974,9.696409756126998,5.368876226869225
2024-12-04 21:49:05.712534000,4.102533935546875,12.11099427909851,9.639514733472463,4.319570003032684
2024-12-04 21:49:05.722560300,4.112560302734375,6.636793637448549,5.639270792341232,2.0039671016864475
2024-12-04 21:49:05.732586200,4.122586181640625,4.180420475539565,3.131319418886304,0.9673960023909808
2024-12-04 21:49:05.742612200,4.1326123046875,1.5129600926518438,2.6649171281456945,-0.5148483417406677
2024-12-04 21:49:05.752639000,4.142638916015625,-1.100623154097795,1.609960915723443,-1.4434806059733032
2024-12-04 21:49:05.762665000,4.1526650390625,-2.712283859476447,-0.6020540392458439,-1.8322440689772368
2024-12-04 21:49:05.772691000,4.16269091796875,-4.609038686808944,-2.3082851256787777,-2.05458333633244
2024-12-04 21:49:05.782717000,4.172717041015625,-5.101889424014091,-3.0485026039898395,-1.8517323210403325
2024-12-04 21:49:05.792743000,4.182742919921875,-3.5962341014176604,-2.477757895243168,-1.424708100964129
2024-12-04 21:49:05.802769000,4.192768798828125,-1.0241092387378214,-1.4467512982070443,-1.0834683134183287
2024-12-04 21:49:05.812795100,4.202795166015625,2.497899935039878,0.0119143096774816,-0.7619573086932301
2024-12-04 21:49:05.822821000,4.212821044921875,0.5282657494574785,1.5876567294567825,-0.4558040320977568
2024-12-04 21:49:05.832847000,4.22284716796875,0.1948047792196273,1.9521406144678592,-0.1665937069967389
2024-12-04 21:49:05.842873000,4.232873046875,2.279974976995588,1.7921207329034805,-0.7243298810884357
2024-12-04 21:49:05.852900900,4.24290087890625,2.978077068632841,1.3710323326170444,-0.9957798008322716
2024-12-04 21:49:05.862926800,4.2529267578125,2.7139590992122886,0.4840104281455278,0.0969397405341267
2024-12-04 21:49:05.872952600,4.26295263671875,1.6452660378605126,0.1030646531552076,1.2066051560044289
2024-12-04 21:49:05.882978600,4.272978515625,0.819304459029436,-0.0193441674172878,3.893288418017328
2024-12-04 21:49:05.893004500,4.283004638671875,0.0804705440312623,0.3419388757258653,5.487475133764743
2024-12-04 21:49:05.903030500,4.293030517578125,-0.213214880657196,1.5535545533686876,3.5753459194287656
2024-12-04 21:49:05.913056500,4.303056396484375,-0.2339069555521011,2.571882286095619,0.9248594676956534
2024-12-04 21:49:05.923082800,4.313082763671875,-0.2862561514705419,2.030862853527069,-0.7654571335077285
2024-12-04 21:49:05.933108700,4.323108642578125,-0.0103372696191072,0.5709592282801866,-1.5974328580617905
2024-12-04 21:49:05.943134700,4.333134765625,0.4116787669062614,0.021346739411354,-2.230524132867157
2024-12-04 21:49:05.953160700,4.34316064453125,-0.0278928000539541,0.2654869196861982,-2.3283076307490465
2024-12-04 21:49:05.963187700,4.353187744140625,-0.4218488632649183,0.6824632084786891,-1.8707526633307336
2024-12-04 21:49:05.973213700,4.363213623046875,-0.037535073146224,0.3271124779939651,-1.0333151662394404
2024-12-04 21:49:05.983239700,4.37323974609375,0.3862830443650484,0.5189215825289487,-0.636263475100696
2024-12-04 21:49:05.993265700,4.383265625,0.2601350372642279,0.7609691744387149,-0.7138850594416261
2024-12-04 21:49:06.003291600,4.393291748046875,-0.0635246699273586,0.8994155220985413,-0.7774456774652003
2024-12-04 21:49:06.013318000,4.40331787109375,0.790551827275753,1.3002519924730065,-0.7445505390793085
2024-12-04 21:49:06.023343900,4.41334375,0.4510936624497175,0.844657511472702,-0.3339569370612502
2024-12-04 21:49:06.033369900,4.423369873046875,-1.5559201134562493,-1.3472551511883737,0.0276531460791826
2024-12-04 21:49:06.043395800,4.433395751953125,-1.5330822587043047,-1.8084768244206904,0.0184083478718996
2024-12-04 21:49:06.053421800,4.443421875,0.1310983229845762,-1.1397300066053866,-0.0878945565521717
2024-12-04 21:49:06.063447800,4.45344775390625,1.7268366520881653,-0.739957950592041,-1.0879612409234047
2024-12-04 21:49:06.073474600,4.463474609375,2.381023029631376,-0.6363947002649307,-2.1584175125554204
2024-12-04 21:49:06.083500500,4.47350048828125,2.129271789830923,-0.553380901491642,-3.041988984312117
2024-12-04 21:49:06.093526500,4.483526611328125,1.618701856061816,-0.4992839851230383,-3.397112335781753
2024-12-04 21:49:06.103552800,4.493552734375,1.1097627383649349,-0.1194715980768203,-3.513667461889982
2024-12-04 21:49:06.113578800,4.503578857421875,-0.1275093585819006,-1.800618512135744,-2.886512299135328
2024-12-04 21:49:06.123604700,4.513604736328125,-0.0938590179145336,-4.081992250013351,-1.658333316965401
2024-12-04 21:49:06.133630700,4.523630615234375,0.4233247810363769,-4.764167289200425,0.5630909791231155
2024-12-04 21:49:06.143656700,4.53365673828125,-0.9728741415411232,-2.8311475547879934,2.143932475607097
2024-12-04 21:49:06.153682700,4.5436826171875,-1.7535966487199066,-1.4410522097826004,2.8236437550291416
2024-12-04 21:49:06.163708700,4.553708740234375,-0.1563484995752573,-2.581990423133969,2.9653543651819225
2024-12-04 21:49:06.173735700,4.563735595703125,1.2021721419930458,-5.114826646998524,2.521428110143542
2024-12-04 21:49:06.183761700,4.57376171875,1.4006190771073102,-7.774621609824895,1.932466776704788
2024-12-04 21:49:06.193788000,4.583787841796875,1.380111711129546,-10.52773490781784,1.0218240504100915
2024-12-04 21:49:06.203814000,4.59381396484375,-0.7865618808567524,-8.942190055948496,2.415049802395701
2024-12-04 21:49:06.213840000,4.60383984375,-3.4037802692383528,-6.754051651129126,2.8695456745043395
2024-12-04 21:49:06.223865900,4.613865966796875,-4.138474015691876,-4.8450049129784105,0.5870651444286108
2024-12-04 21:49:06.233891800,4.623891845703125,-5.1268829954952,-1.4172405415624378,-0.7616027961671352
2024-12-04 21:49:06.243917800,4.633917724609375,-5.2576837968379255,2.750975116920471,-1.0070374001666902
2024-12-04 21:49:06.253943800,4.64394384765625,-4.909861708292365,5.617166512560844,-1.7427888389796018
2024-12-04 21:49:06.263969500,4.653969482421875,-2.8081606469541787,6.112924661645293,-0.9589825404413044
2024-12-04 21:49:06.273995500,4.66399560546875,-0.977520506042242,5.484592856326699,0.0259406430728733
2024-12-04 21:49:06.284022800,4.674022705078125,-0.0007622165441513,7.532179465639591,-1.879534520201385
2024-12-04 21:49:06.294048800,4.684048828125,1.1237152758717537,8.917537845250964,-2.549508541724085
2024-12-04 21:49:06.304074800,4.69407470703125,1.152073939871788,8.996633593797684,-2.646696996322274
2024-12-04 21:49:06.314100700,4.704100830078125,-0.0814829359441995,8.877127508929371,-1.880616908610612
2024-12-04 21:49:06.324126700,4.714126708984375,0.3067348758757114,8.00447549059391,-0.3503869705975055
2024-12-04 21:49:06.334152700,4.724152587890625,2.2586364208906886,6.9142825450956815,0.3210468943446874
2024-12-04 21:49:06.344178700,4.7341787109375,4.557214391547441,6.18635522403717,-0.0416327177233993
2024-12-04 21:49:06.354204700,4.74420458984375,6.119180799430608,5.863768699035048,-0.4093820342712104
2024-12-04 21:49:06.364230700,4.754230712890625,6.431447590470314,5.82581277012825,-0.8944488396018743
2024-12-04 21:49:06.374256600,4.764256591796875,6.251549873003364,5.441398442244529,-1.3185600948408245
2024-12-04 21:49:06.384284000,4.774283935546875,4.739284776878357,4.581304876708984,-1.1213862484022974
2024-12-04 21:49:06.394309600,4.7843095703125,2.5518080508381127,2.942517094951868,-0.5676341755107045
2024-12-04 21:49:06.404335600,4.794335693359375,0.9232137463152408,0.8206593807697296,0.37099633564502
2024-12-04 21:49:06.414361600,4.804361572265625,-0.0451385338872671,-1.2316250309705734,1.444307412186265
2024-12-04 21:49:06.424387600,4.8143876953125,-0.5470365009009838,-2.787323610630631,1.9260361591354007
2024-12-04 21:49:06.434413600,4.82441357421875,-0.9540615967825056,-3.593777355915308,1.8472367631867528
2024-12-04 21:49:06.444439600,4.834439453125,-1.2247288417160511,-4.045071509373188,1.3933452867120504
2024-12-04 21:49:06.454465500,4.844465576171875,-1.6483809550106523,-4.398955674436688,0.6083367727771402
2024-12-04 21:49:06.464491500,4.854491455078125,-2.1143939541727303,-4.849601008597016,-0.1013105029642581
2024-12-04 21:49:06.474517800,4.864517822265625,-2.319164831611514,-5.118800811326503,-0.9143912651732564
2024-12-04 21:49:06.484543700,4.874543701171875,-2.585956988677382,-5.069568286123872,-1.3708996461480856
2024-12-04 21:49:06.494569700,4.88456982421875,-2.8929443780094384,-4.32181515161097,-1.1570295164525508
2024-12-04 21:49:06.504596700,4.8945966796875,-3.0350019019037484,-3.054437839257717,-0.7796011019334197
2024-12-04 21:49:06.514622700,4.904622802734375,-3.070539079231024,-1.8250135332018136,-0.3284679842561483
2024-12-04 21:49:06.524648700,4.914648681640625,-3.217635766336321,-1.0918757840186355,0.215441616795957
2024-12-04 21:49:06.534674700,4.9246748046875,-2.893533576074242,-0.4274970982849597,0.1546300052195787
2024-12-04 21:49:06.544700700,4.93470068359375,-1.9646192800298328,0.3626175066173076,0.0461488799735903
2024-12-04 21:49:06.554726700,4.9447265625,-1.3658809412032364,1.2791565974742174,-0.1150599191144108
2024-12-04 21:49:06.564753000,4.9547529296875,-1.247312429445982,2.2257412825047966,-0.4289093031704425
2024-12-04 21:49:06.574779000,4.96477880859375,-0.3990755981817841,2.930253825706244,-0.4857318451106548
2024-12-04 21:49:06.584804900,4.974804931640625,1.479518426299095,2.7582506608814,0.0688292060762643
2024-12-04 21:49:06.594830800,4.984830810546875,3.4006814264401792,1.844474020475149,0.4625850705400109
2024-12-04 21:49:06.604857600,4.994857666015625,5.068476983755827,0.8738561334282159,0.5807464628010988
2024-12-04 21:49:06.614883600,5.004883544921875,5.897983687847852,0.247950678473711,0.5842398578748107
2024-12-04 21:49:06.624909600,5.01490966796875,5.726655645805597,-0.0513520015746355,0.3605024141594767
2024-12-04 21:49:06.634935600,5.024935546875,4.678626310037076,-0.1563677887976169,-0.0934223800629377
2024-12-04 21:49:06.644961800,5.0349619140625,3.044106122596561,-0.1646048712670803,-0.453105002272129
2024-12-04 21:49:06.654987800,5.04498779296875,1.4412103229537605,-0.1876204206734895,-0.7223159109175205
2024-12-04 21:49:06.665013800,5.055013671875,0.1420543090239167,-0.2480506317168474,-0.998128994306922
2024-12-04 21:49:06.675039700,5.065039794921875,-0.8712146790087223,-0.3345639630436897,-1.241731998965144
2024-12-04 21:49:06.685065700,5.075065673828125,-1.650002418732643,-0.3948386912643909,-1.3080834167510271
2024-12-04 21:49:06.695091700,5.085091796875,-2.229173887301981,-0.3725391811728477,-1.189629471284151
2024-12-04 21:49:06.705117700,5.09511767578125,-2.5962284995839,-0.3646872986286878,-1.0140180528342724
2024-12-04 21:49:06.715144700,5.105144775390625,-2.6693399130240083,-0.4627063588321208,-0.821219937261939
2024-12-04 21:49:06.725170700,5.115170654296875,-2.436652270133793,-0.6279243935614824,-0.5985393091231584
2024-12-04 21:49:06.735197000,5.125197021484375,-1.8389266154810784,-0.7916571581691503,-0.3823343067392706
2024-12-04 21:49:06.745223000,5.135222900390625,-1.039324635787308,-0.777069829890132,-0.262948925641179
2024-12-04 21:49:06.755249000,5.145248779296875,-0.20474954238981,-0.519928129222989,-0.2108048969060182
2024-12-04 21:49:06.765275000,5.15527490234375,0.5424304684102534,-0.2317787113517522,-0.1883870211318135
2024-12-04 21:49:06.775300900,5.16530078125,1.099217671214044,-0.0092757778674364,-0.1952966543897986
2024-12-04 21:49:06.785326600,5.17532666015625,1.4514973236903548,0.1186561900407075,-0.171787476247549
2024-12-04 21:49:06.795352600,5.1853525390625,1.6026245814859863,0.1982879451602697,-0.1079930494681
2024-12-04 21:49:06.805378600,5.195378662109375,1.4837676081761717,0.2879670470416545,-0.0158858436569571
2024-12-04 21:49:06.815404500,5.205404541015625,1.0913301328346132,0.3989449575394392,0.0641466012179851
2024-12-04 21:49:06.825431800,5.215431884765625,0.6562234363287687,0.4830430444180965,0.1611348570689559
2024-12-04 21:49:06.835457800,5.225457763671875,0.2947483777448534,0.494122072315216,0.1451452607765793
2024-12-04 21:49:06.845483800,5.23548388671875,0.0689101623579859,0.4173234947949648,0.1521010712638497
2024-12-04 21:49:06.855509800,5.245509765625,-0.0570391073003411,0.2455821957767009,0.1542915670454502
2024-12-04 21:49:06.865535700,5.25553564453125,-0.1530439050719141,0.0640156683146953,0.0650271834447979
2024-12-04 21:49:06.875562000,5.26556201171875,-0.1766471912384033,-0.1567757850766181,0.072645549494028
2024-12-04 21:49:06.885588000,5.275587890625,-0.1367135325178504,-0.3276128287315368,0.0022758359774947
2024-12-04 21:49:06.895614000,5.285614013671875,-0.0063657356396317,-0.4078454723536968,-0.1494672156289219
2024-12-04 21:49:06.905640000,5.295639892578125,0.1637877096652984,-0.3966284972906112,-0.2171124726176261
2024-12-04 21:49:06.915666000,5.305666015625,0.2845160298049449,-0.3116045277386903,-0.2451514031440019
2024-12-04 21:49:06.925692000,5.31569189453125,0.3246893425002694,-0.1809802520066499,-0.2213914651110768
2024-12-04 21:49:06.935718700,5.32571875,0.3158078246474265,-0.0057090252965688,-0.1627928534090519
2024-12-04 21:49:06.945744600,5.33574462890625,0.3085071462452411,0.1566805080085992,-0.1105520863011479
2024-12-04 21:49:06.955770600,5.3457705078125,0.2994987871423363,0.3061585372924804,-0.0911041662484407
2024-12-04 21:49:06.965796900,5.355796875,0.2792620547994971,0.3803092306524515,-0.0742950702667236
2024-12-04 21:49:06.975822800,5.36582275390625,0.2075076089262962,0.3802531165510416,-0.0789323746785521
2024-12-04 21:49:06.985848800,5.375848876953125,0.1145163137570023,0.3205804458767175,-0.1301166184708476
2024-12-04 21:49:06.995874800,5.385874755859375,0.0234030874192714,0.2159609644949436,-0.2148787222161889
2024-12-04 21:49:07.005900800,5.39590087890625,-0.004783727145195,0.1531599326670169,-0.2770224591791629
2024-12-04 21:49:07.015926800,5.4059267578125,-0.0120794371113181,0.1255459495544433,-0.3167895291611552
2024-12-04 21:49:07.025952800,5.415952880859375,-0.0009153612792491,0.1347182670474052,-0.3330325156927108
2024-12-04 21:49:07.035978800,5.425978759765625,-0.0358940279409289,0.171992643430829,-0.3490744266942143
2024-12-04 21:49:07.046005800,5.436005859375,-0.0277878783747553,0.2238648694872856,-0.2774275328487157
2024-12-04 21:49:07.056032000,5.446031982421875,-0.0401671752154827,0.267859494036436,-0.163540456905961
2024-12-04 21:49:07.066058000,5.45605810546875,-0.0474973719730973,0.3102805856585502,-0.0687666622340679
2024-12-04 21:49:07.076084000,5.466083984375,0.06410948407799,0.3511585394918918,0.0109726449131965
2024-12-04 21:49:07.086110000,5.47610986328125,0.1726969923079013,0.3601490706771612,0.0310270064264535
2024-12-04 21:49:07.096136000,5.486135986328125,0.2070049201011657,0.364446475610137,0.0447679470092058
2024-12-04 21:49:07.106162000,5.496161865234375,0.2491147538170218,0.3134896108329296,0.0095709614217281
2024-12-04 21:49:07.116188000,5.50618798828125,0.425029246866703,0.2738607802778482,-0.0312625687479972
2024-12-04 21:49:07.126214000,5.5162138671875,0.6287909472629427,0.2545019998133182,0.0169166480094194
2024-12-04 21:49:07.136239900,5.526239990234375,0.7866223788723349,0.2698947992563247,0.0204302090883255
2024-12-04 21:49:07.146265900,5.536265869140625,0.8649465585246682,0.3384422657817602,-0.0157896898061037
2024-12-04 21:49:07.156292900,5.54629296875,0.8543450850114226,0.4827513679951429,-0.0608048895746469
2024-12-04 21:49:07.166318800,5.55631884765625,0.8918795736357569,0.7097656414240598,-0.0547568415820598
2024-12-04 21:49:07.176344800,5.5663447265625,0.901642842759192,0.940938203576207,0.0129921680420637
2024-12-04 21:49:07.186370800,5.576370849609375,0.7441194541856646,1.060188852378726,0.0697357995271682
2024-12-04 21:49:07.196396800,5.586396728515625,0.5071031344413757,0.9971411523133517,0.0646557197839021
2024-12-04 21:49:07.206422800,5.5964228515625,0.3420578259304165,0.8429705812990665,0.0452086765140295
2024-12-04 21:49:07.216448800,5.60644873046875,0.3557593112856149,0.6736018566310406,0.0189992995023727
2024-12-04 21:49:07.226474800,5.616474853515625,0.4741688330888748,0.3849111714899539,-0.0260445418387651
2024-12-04 21:49:07.236500700,5.626500732421875,0.5467801880523562,0.0957300724834203,0.0194616563171148
2024-12-04 21:49:07.246527000,5.63652685546875,0.5649763544782996,-0.0965548328697681,0.2091559606552124
2024-12-04 21:49:07.256553000,5.646552978515625,0.6699950643107294,-0.1694195780724287,0.3536310670852661
2024-12-04 21:49:07.266580000,5.656580078125,0.8409203707709908,-0.1551017143845558,0.320710209736228
2024-12-04 21:49:07.276606000,5.66660595703125,0.9861527253091334,-0.0957972925007343,0.1385486389905214
2024-12-04 21:49:07.286632000,5.6766318359375,1.016526820784807,-0.0014244798451662,-0.0222515792965888
2024-12-04 21:49:07.296658000,5.686657958984375,0.9433996252536772,0.1104687919318676,-0.1540828927308321
2024-12-04 21:49:07.306684000,5.696683837890625,0.8677475874200463,0.1974497407704591,-0.2348579726666212
2024-12-04 21:49:07.316709600,5.706709716796875,0.7990215494573116,0.3151823862254619,-0.2746282575190067
2024-12-04 21:49:07.326735600,5.716735595703125,0.7897779202938079,0.4037789535671472,-0.29308570522964
2024-12-04 21:49:07.336761900,5.726761962890625,0.810986712539196,0.4439940595775842,-0.3996756099015474
2024-12-04 21:49:07.346787800,5.736787841796875,0.7882759912982582,0.3653706047177315,-0.4884416885912418
2024-12-04 21:49:07.356813800,5.746813720703125,0.7480150003194809,0.3101017219603061,-0.4946452194064855
2024-12-04 21:49:07.366839800,5.75683984375,0.6533920122951269,0.2234831766933202,-0.4377566264927387
2024-12-04 21:49:07.376866800,5.76686669921875,0.5862637649178505,0.1195890869766473,-0.4506324746787548
2024-12-04 21:49:07.386892800,5.776892822265625,0.6536825196743011,0.042369069173932,-0.5640951877295971
2024-12-04 21:49:07.396918800,5.786918701171875,0.7441843361154198,0.0188303726762533,-0.6613052696377039
2024-12-04 21:49:07.406944800,5.79694482421875,0.659611617462337,0.0275894331932067,-0.5655494781911373
2024-12-04 21:49:07.416970800,5.806970703125,0.4596726902246475,0.1026420438289642,-0.4937292736053466
2024-12-04 21:49:07.426997000,5.8169970703125,0.2923419011250138,0.2903098107755184,-0.3736714000731706
2024-12-04 21:49:07.437023000,5.82702294921875,0.2317535769104957,0.5707628289252519,-0.223545136013627
2024-12-04 21:49:07.447049000,5.837049072265625,0.3013797785833478,0.8239899864971637,-0.1777116055995226
2024-12-04 21:49:07.457075000,5.847074951171875,0.3726806354701519,1.0107897384375333,0.0022580080598592
2024-12-04 21:49:07.467101000,5.857100830078125,0.3410407578423619,1.204088789269328,0.4285679423868656
2024-12-04 21:49:07.477127000,5.867126953125,0.269935423527658,1.277092650681734,0.7472562909066677
2024-12-04 21:49:07.487153700,5.877153564453125,0.2673570974722504,1.1617863555908203,0.7902157271891832
2024-12-04 21:49:07.497179600,5.8871796875,0.4168541237175464,0.9991711968362332,0.7726058362185955
2024-12-04 21:49:07.507205600,5.89720556640625,0.5985343406870961,0.8673913213282823,0.9136077135801316
2024-12-04 21:49:07.517231900,5.90723193359375,0.7718541410684585,0.7735176903665065,1.0253536858409642
2024-12-04 21:49:07.527257900,5.9172578125,0.7786158902883529,0.7322580437391996,0.9269260448366404
2024-12-04 21:49:07.537283800,5.927283935546875,0.5218289944082498,0.7941127346277237,0.5089052154272794
2024-12-04 21:49:07.547309800,5.937309814453125,0.353459509910643,0.8529103760331869,-0.1023018520891666
2024-12-04 21:49:07.557335800,5.947335693359375,0.2861094364762306,0.9227782775074242,-0.5469441464424133
2024-12-04 21:49:07.567361800,5.95736181640625,0.2360091885283589,0.88964523871243,-0.6317594416797161
2024-12-04 21:49:07.577387800,5.9673876953125,0.095960081847012,0.695341394752264,-0.5449164400070905
2024-12-04 21:49:07.587413800,5.977413818359375,0.0252568985924124,0.4651911613851785,-0.8061486248582601
2024-12-04 21:49:07.597439700,5.987439697265625,-0.0176014154031872,0.0477408253401517,-1.156143381267786
2024-12-04 21:49:07.607467000,5.997467041015625,-0.2606500010490417,-0.3925505803272128,-1.4825707996070383
2024-12-04 21:49:07.617493000,6.007492919921875,-0.5731880102455615,-0.8223498180747032,-1.692465011408925
2024-12-04 21:49:07.627519000,6.01751904296875,-0.791504890216887,-1.1730410323157905,-1.69471249807477
2024-12-04 21:49:07.637545000,6.027544921875,-0.9966206355705856,-1.4688865576475858,-1.619506158182025
2024-12-04 21:49:07.647571000,6.037571044921875,-1.1537117702066897,-1.6365350343942642,-1.361290106281638
2024-12-04 21:49:07.657597000,6.047596923828125,-1.2994748706206678,-1.7852710131391882,-1.076992687663436
2024-12-04 21:49:07.667623000,6.057622802734375,-1.7505901603803038,-1.866632660791277,-0.6377496220052242
2024-12-04 21:49:07.677649000,6.06764892578125,-2.4115745275005698,-1.7549895643830298,-0.1887660835772752
2024-12-04 21:49:07.687675000,6.0776748046875,-2.9856685466751456,-1.605743882550299,0.195920631507039
2024-12-04 21:49:07.697700900,6.087700927734375,-3.376837609516084,-1.4575760590821505,0.4155056317180395
2024-12-04 21:49:07.707726800,6.097726806640625,-3.442987367250025,-1.328119073563814,0.5270201333105564
2024-12-04 21:49:07.717753900,6.10775390625,-3.348202174401283,-1.3165522621497512,0.295151990109682
2024-12-04 21:49:07.727779800,6.11777978515625,-3.0527450638651845,-1.4603773802384734,-0.2392775426745414
2024-12-04 21:49:07.737805800,6.127805908203125,-2.419097616481781,-1.6389552472785114,-0.4826911622405052
2024-12-04 21:49:07.747831800,6.137831787109375,-1.760582562084496,-1.7507924049541352,-0.4452466899871826
2024-12-04 21:49:07.757857800,6.14785791015625,-1.4981170360460876,-1.93741446224004,-0.5559919607728719
2024-12-04 21:49:07.767883800,6.1578837890625,-1.3894333739653228,-2.153380395171046,-0.5818962173581123
2024-12-04 21:49:07.777909800,6.16790966796875,-1.2811594617292283,-2.299175936549902,-0.476798012548685
2024-12-04 21:49:07.787935700,6.177935791015625,-1.299547643595934,-2.3141528486683964,-0.176444362142682
2024-12-04 21:49:07.797962000,6.1879619140625,-1.5538170036971568,-2.152405704919994,0.0848339999377727
2024-12-04 21:49:07.807988000,6.197988037109375,-1.7815137064322828,-1.8595026627808808,0.2359720713883638
2024-12-04 21:49:07.818014000,6.208013916015625,-1.757769842751324,-1.6365028856903314,0.262272049292922
2024-12-04 21:49:07.828041000,6.218041015625,-1.751093141466379,-1.4152730408817529,0.2025765822649002
2024-12-04 21:49:07.838067000,6.22806689453125,-1.6068492134436965,-1.314463473176956,-0.067645549249649
2024-12-04 21:49:07.848092700,6.2380927734375,-1.2122092596217988,-1.3237363284349442,-0.4796884732931852
2024-12-04 21:49:07.858118700,6.24811865234375,-0.7284191962286829,-1.3046382447332143,-0.7667477578401565
2024-12-04 21:49:07.868144600,6.25814453125,-0.249466928255558,-1.1855629524976017,-0.9049871847510336
2024-12-04 21:49:07.878170400,6.26817041015625,0.1996072110652923,-1.033366311904788,-1.067115436771512
2024-12-04 21:49:07.888196400,6.2781962890625,0.481537023769319,-0.8726222077190875,-1.245534898379445
2024-12-04 21:49:07.898222300,6.288222412109375,0.5486798841938376,-0.6312625980734825,-1.4838409656733274
2024-12-04 21:49:07.908248300,6.298248291015625,0.6077832305476069,-0.4618950424492359,-1.693570926824212
2024-12-04 21:49:07.918274300,6.3082744140625,0.611160598026216,-0.3450479476571083,-1.7689479471087457
2024-12-04 21:49:07.928300300,6.31830029296875,0.5568073688089847,-0.3104430827438831,-1.7355729162514208
2024-12-04 21:49:07.938327300,6.328327392578125,0.5118170112207532,-0.3275684050679207,-1.637986402246356
2024-12-04 21:49:07.948353500,6.338353515625,0.4140487109079956,-0.3940560164541006,-1.430163151499629
2024-12-04 21:49:07.958379500,6.348379638671875,0.193278008043766,-0.4395452634751796,-1.1766834804713726
2024-12-04 21:49:07.968405500,6.358405517578125,0.1078647469133138,-0.5513900199353695,-1.037199021935463
2024-12-04 21:49:07.978431500,6.368431396484375,0.1940457775458693,-0.7019073291391134,-1.119643496388197
2024-12-04 21:49:07.988457500,6.37845751953125,0.3550353809252381,-0.8092354849576949,-1.321629127022624
2024-12-04 21:49:07.998483500,6.3884833984375,0.5416036621972918,-0.8887994355380534,-1.1696733094483611
2024-12-04 21:49:08.008509400,6.398509521484375,0.7718424506306648,-0.9776040926724672,-1.0396984375357627
2024-12-04 21:49:08.018535400,6.408535400390625,1.020987891846895,-0.973038976714015,-1.1362450870990752
2024-12-04 21:49:08.028561400,6.4185615234375,1.1566790955796835,-0.9022048605561256,-1.20899000531435
2024-12-04 21:49:08.038587400,6.42858740234375,1.2896715617477894,-0.7322925305306911,-1.3215718438774346
2024-12-04 21:49:08.048613400,6.43861328125,1.5027014412268995,-0.4593132092624902,-1.468509541028738
2024-12-04 21:49:08.058640400,6.448640380859375,1.7080372590720652,-0.0955289969533681,-1.5555559563189745
2024-12-04 21:49:08.068666400,6.458666259765625,1.9485326531037688,0.2997299655497074,-1.5536948386222122
2024-12-04 21:49:08.078692400,6.4686923828125,2.212628118431568,0.7239560793399811,-1.660852898570895
2024-12-04 21:49:08.088718300,6.47871826171875,2.439958033680916,1.1478829179227352,-1.6838310385763644
2024-12-04 21:49:08.098744300,6.488744384765625,2.6172531674340367,1.5828338393449783,-1.5131009624272584
2024-12-04 21:49:08.108770300,6.498770263671875,2.668716812689602,1.945557728946209,-1.2115718385010956
2024-12-04 21:49:08.118796300,6.50879638671875,2.663190158222616,2.2076760489821434,-0.9400479767382144
2024-12-04 21:49:08.128822300,6.518822265625,2.4322636797860264,2.388858545562625,-0.7061942126780748
2024-12-04 21:49:08.138848300,6.52884814453125,2.114565511347353,2.530000123655796,-0.4871791213095188
2024-12-04 21:49:08.148874500,6.53887451171875,1.7879416936531662,2.553139007180929,-0.2060954040408134
2024-12-04 21:49:08.158900500,6.548900390625,1.485788884870708,2.6540537888258693,0.0615741203814744
2024-12-04 21:49:08.168927500,6.558927490234375,1.193118774704635,2.743881943789124,0.3715536772668361
2024-12-04 21:49:08.178953500,6.568953369140625,0.990163422255218,2.770523866999149,0.7219704584807157
2024-12-04 21:49:08.188979500,6.5789794921875,0.7897951636895537,2.7836878844767807,1.1021893805012106
2024-12-04 21:49:08.199005400,6.58900537109375,0.640844080889225,2.683473360055685,1.4122434639275072
2024-12-04 21:49:08.209031400,6.599031494140625,0.5140837871089577,2.336322887161374,1.608409010106325
2024-12-04 21:49:08.219057400,6.609057373046875,0.335667540371418,1.9172902503609657,1.7516183343842624
2024-12-04 21:49:08.229083600,6.619083740234375,0.1991732035622,1.4179782081872223,1.859306555686891
2024-12-04 21:49:08.239109600,6.629109619140625,0.0959901847243309,1.0033838460952045,1.9949676565423609
2024-12-04 21:49:08.249135600,6.639135498046875,0.0029424831926822,0.7467728913038969,2.169084452520311
2024-12-04 21:49:08.259161600,6.64916162109375,-0.0084448800012469,0.6529033519953489,2.335336798733473
2024-12-04 21:49:08.269187300,6.659187255859375,-0.0232128255441784,0.7479945420533418,2.287590420435369
2024-12-04 21:49:08.279214300,6.66921435546875,-0.1084179968819022,0.9821130945295096,1.8522224426448344
2024-12-04 21:49:08.289240300,6.679240234375,-0.2768260598242282,1.2073586047202347,1.295067575572431
2024-12-04 21:49:08.299266300,6.689266357421875,-0.4753305703446269,1.290800273516774,0.8279910388320684
2024-12-04 21:49:08.309292300,6.699292236328125,-0.6892007000401615,1.2332114233791829,0.4838523149743676
2024-12-04 21:49:08.319318500,6.709318603515625,-0.8802019953235983,1.1084054785370827,0.2138262905538082
2024-12-04 21:49:08.329344500,6.719344482421875,-1.0384861391365527,0.95428634544909,0.0992146997287869
2024-12-04 21:49:08.339370500,6.72937060546875,-1.0962708041071891,0.8711585649073124,0.1599509079813957
2024-12-04 21:49:08.349396500,6.739396484375,-1.0934206753730773,0.8345540506094694,0.3189893772929906
2024-12-04 21:49:08.359422500,6.74942236328125,-1.0709057689651846,0.82713003808856,0.456001308235526
2024-12-04 21:49:08.369448400,6.759448486328125,-0.8901181169211864,0.8445663260579108,0.5010311210513114
2024-12-04 21:49:08.379474400,6.769474365234375,-0.4105900948867201,0.92621760430634,0.579354716181755
2024-12-04 21:49:08.389501400,6.77950146484375,0.0989642320990562,1.0256950466245411,0.6195832661956548
2024-12-04 21:49:08.399527400,6.78952734375,0.4825616906419396,1.0686585745602846,0.558526447686553
2024-12-04 21:49:08.409553400,6.799553466796875,0.8397963351771235,1.0860779113948344,0.4229325668483972
2024-12-04 21:49:08.419579400,6.809579345703125,1.3039601993411778,1.0888502987176178,0.289711844882369
2024-12-04 21:49:08.429605400,6.81960546875,1.7369605712175369,1.1804676751852037,0.3792050688028335
2024-12-04 21:49:08.439631400,6.82963134765625,2.001596719293296,1.403224291169643,0.597441577014327
2024-12-04 21:49:08.449657300,6.8396572265625,1.990424460154772,1.6681477317541835,0.8035644535839557
2024-12-04 21:49:08.459683300,6.849683349609375,1.8128712599873544,1.9179151042610405,0.8012398100286722
2024-12-04 21:49:08.469709300,6.859709228515625,1.635782170200348,2.107205503973365,0.6143108787506818
2024-12-04 21:49:08.479735300,6.8697353515625,1.4140622037872672,2.209836441886425,0.3738549399465322
2024-12-04 21:49:08.489761300,6.87976123046875,1.140607958483696,2.230743036314845,0.0729354723513126
2024-12-04 21:49:08.499787300,6.889787353515625,0.9295277517676352,2.053492033964396,-0.2974672813147306
2024-12-04 21:49:08.509814500,6.899814453125,0.8546911219701171,1.741550237095356,-0.6391062973111867
2024-12-04 21:49:08.519840500,6.909840576171875,0.9378995665326714,1.373112646022439,-0.9368436277389526
2024-12-04 21:49:08.529866500,6.919866455078125,1.01250209531337,0.9767921917676924,-1.0578776528269052
2024-12-04 21:49:08.539892500,6.929892578125,0.9290721169546244,0.6299696356534957,-1.0160890138894318
2024-12-04 21:49:08.549918500,6.93991845703125,0.7987623139992356,0.4639361928880214,-0.9641010524988174
2024-12-04 21:49:08.559944400,6.9499443359375,0.6598290596053004,0.3736410049349069,-0.844786106288433
2024-12-04 21:49:08.569970400,6.959970458984375,0.5644912013098597,0.3999298769235611,-0.7571762118965387
2024-12-04 21:49:08.579996400,6.969996337890625,0.5519394705116748,0.4845978726446628,-0.6961258231282234
2024-12-04 21:49:08.590022400,6.9800224609375,0.4806330606669187,0.6048743573635816,-0.6652098758608103
2024-12-04 21:49:08.600048600,6.990048583984375,0.3132297908529639,0.7406313198089599,-0.5648813696712255
2024-12-04 21:49:08.610074600,7.00007470703125,0.1328957277953624,0.9172492849528788,-0.6200029529124498
2024-12-04 21:49:08.620101400,7.010101318359375,0.0549938652083277,0.9970675025552512,-0.8604197287499904
2024-12-04 21:49:08.630127400,7.02012744140625,0.2351972876235842,0.941965793058276,-1.1911106497526167
2024-12-04 21:49:08.640153300,7.0301533203125,0.289745454891026,0.8415759120702743,-1.262967094695568
2024-12-04 21:49:08.650179300,7.040179443359375,0.3581286707654595,0.6877244900077581,-1.361241590964794
2024-12-04 21:49:08.660205300,7.050205322265625,0.6063140347778797,0.3986681864246725,-1.6569108829468489
2024-12-04 21:49:08.670231300,7.060231201171875,0.6975827439382671,0.0743625825449824,-2.006257404580712
2024-12-04 21:49:08.680257300,7.07025732421875,0.5217345941230654,-0.2784878555566072,-2.4067478379964826
2024-12-04 21:49:08.690283500,7.080283447265625,0.2930266685187816,-0.8052130975738168,-2.811151645463705
2024-12-04 21:49:08.700309500,7.0903095703125,-0.0787877055108547,-1.4055983268246053,-3.068936320209503
2024-12-04 21:49:08.710335500,7.10033544921875,-0.6294970497056841,-2.00648595263958,-3.034907793879509
2024-12-04 21:49:08.720361500,7.110361572265625,-1.1494146575346589,-2.628534147644043,-2.8422476254731417
2024-12-04 21:49:08.730388500,7.120388427734375,-1.5981956591278317,-3.271038270699978,-2.6850597524642943
2024-12-04 21:49:08.740414500,7.13041455078125,-2.06826319437772,-3.8842452798619855,-2.455771104362607
2024-12-04 21:49:08.750440400,7.1404404296875,-2.650901170013845,-4.271646514602005,-2.0888111846268176
2024-12-04 21:49:08.760466400,7.150466552734375,-3.304443112173676,-4.390925220455229,-1.528711788535118
2024-12-04 21:49:08.770492400,7.160492431640625,-3.9312431778803454,-4.35894865821898,-1.0050625929623842
2024-12-04 21:49:08.780518700,7.1705185546875,-4.329271897357702,-4.181889963570237,-0.5947931083321571
2024-12-04 21:49:08.790544400,7.18054443359375,-4.452351164537668,-3.8721895158872006,-0.3685837215453386
2024-12-04 21:49:08.800570400,7.1905703125,-4.317762661349773,-3.558996842174232,-0.2946434560656547
2024-12-04 21:49:08.810596400,7.200596435546875,-4.020484180605411,-3.3692201202496883,-0.2504050858885049
2024-12-04 21:49:08.820622300,7.210622314453125,-3.616863924731314,-3.3198508169248697,-0.2065764655560255
2024-12-04 21:49:08.830648300,7.2206484375,-3.0708719644472,-3.3066149032548067,-0.1756377219349146
2024-12-04 21:49:08.840675300,7.23067529296875,-2.5862533412754534,-3.2059058733150363,-0.0816325735479593
2024-12-04 21:49:08.850701300,7.240701416015625,-2.1339842053055764,-3.015159429575503,-0.0135234984397888
2024-12-04 21:49:08.860727300,7.250727294921875,-1.5969906672522425,-2.7844343189299106,-0.0114975455701351
2024-12-04 21:49:08.870753300,7.260753173828125,-1.10650812048316,-2.49002467162013,-0.2082739171236753
2024-12-04 21:49:08.880779300,7.270779296875,-0.7858601623281836,-2.120570012459159,-0.4710357957601547
2024-12-04 21:49:08.890805200,7.28080517578125,-0.6433516797959804,-1.7171096233218908,-0.776330994221568
2024-12-04 21:49:08.900831200,7.290831298828125,-0.565673104570806,-1.2297452085733414,-1.0803045886904
2024-12-04 21:49:08.910857500,7.300857421875,-0.4451823925793171,-0.8455237729132175,-1.3688666790157555
2024-12-04 21:49:08.920883500,7.310883544921875,-0.3349833574995398,-0.4198164806544781,-1.511887494984269
2024-12-04 21:49:08.930909400,7.320909423828125,-0.2330713815107941,-0.0759264708608388,-1.5542589022457598
2024-12-04 21:49:08.940935400,7.330935302734375,-0.129317577047646,0.1933615946739912,-1.684450631779432
2024-12-04 21:49:08.950961400,7.34096142578125,0.0556242720663547,0.4329308137714862,-1.7261621138274668
2024-12-04 21:49:08.960988200,7.35098828125,0.4840259179756045,0.6087345399230718,-1.6144477057486772
2024-12-04 21:49:08.971014100,7.36101416015625,1.042644427859783,0.7382564073711633,-1.5116034173458814
2024-12-04 21:49:08.981040000,7.3710400390625,1.557013900042325,1.0241711980581285,-1.652640366020799
2024-12-04 21:49:08.991066400,7.38106640625,1.7856363393202423,1.3991916746526956,-1.732349862551689
2024-12-04 21:49:09.001092400,7.39109228515625,1.7713704980805516,1.662844949170947,-1.4511568396896124
2024-12-04 21:49:09.011118300,7.401118408203125,1.7909975740924478,1.802819237050414,-1.0546113445073366
2024-12-04 21:49:09.021144300,7.411144287109375,1.905211690032482,1.8380559701263903,-0.6215273860007524
2024-12-04 21:49:09.031170300,7.42117041015625,2.1266636531591416,1.7902654604256152,-0.2134709012448787
2024-12-04 21:49:09.041196300,7.4311962890625,2.32950020153448,1.653661525762081,0.0312941329300403
2024-12-04 21:49:09.051222300,7.44122216796875,2.2843027770668267,1.5482278053879737,0.2568354111969471
2024-12-04 21:49:09.061248300,7.451248291015625,2.122198198182881,1.499162453445792,0.5104775793105364
2024-12-04 21:49:09.071275300,7.461275146484375,1.9043173715412616,1.5264000044614077,0.881381268236041
2024-12-04 21:49:09.081301500,7.471301513671875,1.4189163658201691,1.6543717198580503,1.199920563673973
2024-12-04 21:49:09.091327500,7.481327392578125,0.8006663940548896,2.039497995403409,1.6018360614567997
2024-12-04 21:49:09.101353500,7.491353515625,0.2680421571269631,2.599326173338294,2.074252497920394
2024-12-04 21:49:09.111379500,7.50137939453125,-0.0905915405511856,3.183926973479986,2.58210089777112
2024-12-04 21:49:09.121405400,7.511405517578125,-0.3813093476057052,3.5885868015348907,3.010365473297238
2024-12-04 21:49:09.131431400,7.521431396484375,-0.5789733156487346,3.644387014690041,3.1812308662638067
2024-12-04 21:49:09.141457400,7.53145751953125,-0.5802034419655799,3.2730776675730944,2.988935147255659
2024-12-04 21:49:09.151483400,7.5414833984375,-0.3856690041199326,2.673331320747733,2.6117060547009108
2024-12-04 21:49:09.161509400,7.55150927734375,-0.2980091331064701,2.1419605910122392,2.3164508964777
2024-12-04 21:49:09.171535400,7.561535400390625,-0.250231482887268,1.8230185599923128,2.145980932569504
2024-12-04 21:49:09.181562400,7.571562255859375,-0.029871698911488,1.6179285336017608,1.960824856182933
2024-12-04 21:49:09.191588400,7.58158837890625,0.4101671932995319,1.4587269826829432,1.862517918948829
2024-12-04 21:49:09.201614300,7.5916142578125,0.9368848365321756,1.3581629141718148,1.4819287023112178
2024-12-04 21:49:09.211640300,7.601640380859375,1.3861521603375673,1.1977946575611829,1.067130342079699
2024-12-04 21:49:09.221666300,7.611666259765625,1.723575019943714,0.9186439541816712,0.7628636098831891
2024-12-04 21:49:09.231692300,7.6216923828125,1.895584614509344,0.7162567570090294,0.4503574571296572
2024-12-04 21:49:09.241718300,7.63171826171875,1.9036840420737864,0.6031845045804977,0.0897191416308283
2024-12-04 21:49:09.251744300,7.641744140625,1.678902350002527,0.6327332551479339,-0.2311392444044351
2024-12-04 21:49:09.261770200,7.651770263671875,1.235842648665607,0.7128156766444445,-0.4656704693347215
2024-12-04 21:49:09.271796200,7.661796142578125,0.6194993873044848,0.7557493939638137,-0.5655278508812189
2024-12-04 21:49:09.281822500,7.671822509765625,0.0816995013043284,0.7656979565262794,-0.6266226633131504
2024-12-04 21:49:09.291849500,7.681849365234375,-0.2892413047611713,0.7527952203333378,-0.6517109273403883
2024-12-04 21:49:09.301875500,7.69187548828125,-0.5303893174827099,0.7290308983862399,-0.6109913789391517
2024-12-04 21:49:09.311901400,7.7019013671875,-0.6315414150148629,0.7464484816551208,-0.530834723162651
2024-12-04 21:49:09.321927400,7.711927490234375,-0.6301932152763009,0.8456827628672122,-0.3982762644976377
2024-12-04 21:49:09.331953400,7.721953369140625,-0.5077437704324722,1.043877184525132,-0.2268371632963418
2024-12-04 21:49:09.341979400,7.7319794921875,-0.1821267916932702,1.2972802831858397,-0.0855769272595644
2024-12-04 21:49:09.352005000,7.742005126953125,0.265054665748775,1.652529891383648,0.0431909069508314
2024-12-04 21:49:09.362031000,7.752031005859375,0.6927867418333887,1.9903186616927384,0.2464800213992595
2024-12-04 21:49:09.372057300,7.762057373046875,1.0228341042354705,2.2800620707571504,0.472590623986721
2024-12-04 21:49:09.382083300,7.772083251953125,1.2850903714373707,2.467863693216443,0.5381278027802705
2024-12-04 21:49:09.392109300,7.782109375,1.434758078074455,2.588641113194824,0.5363900192022323
2024-12-04 21:49:09.402136300,7.79213623046875,1.6000678827404975,2.708751593697071,0.5105161577552557
2024-12-04 21:49:09.412162300,7.802162353515625,1.7635294291913508,2.758747504487633,0.5337701920926571
2024-12-04 21:49:09.422188300,7.812188232421875,1.9105692715428768,2.7466134145796297,0.5156120195895433
2024-12-04 21:49:09.432214300,7.82221435546875,2.10043527918607,2.636676537567377,0.3024713732123374
2024-12-04 21:49:09.442240300,7.832240234375,2.365870468685031,2.45779822627604,-0.0066986208558082
2024-12-04 21:49:09.452266500,7.8422666015625,2.545438515806198,2.166817968893051,-0.3471668395072221
2024-12-04 21:49:09.462292500,7.85229248046875,2.660032863235473,1.6612474508464334,-0.5675701703637838
2024-12-04 21:49:09.472318500,7.862318359375,2.762625514964759,0.9551818329840898,-1.055458901247382
2024-12-04 21:49:09.482344400,7.872344482421875,2.6424551209688185,0.2238368124365806,-1.7996254094451665
2024-12-04 21:49:09.492370400,7.882370361328125,2.096156286692619,-0.4454892665714025,-2.392307809233665
2024-12-04 21:49:09.502396400,7.892396484375,1.2606854134991765,-0.9388567211270332,-2.629097042223811
2024-12-04 21:49:09.512423200,7.902423095703125,0.3838686766996979,-1.1651385886281729,-2.5304303317666053
2024-12-04 21:49:09.522449200,7.91244921875,-0.5265218283995986,-1.033955509969592,-2.089898395341635
2024-12-04 21:49:09.532475100,7.92247509765625,-1.3282356856808066,-0.8750725234806537,-1.6375287216067314
2024-12-04 21:49:09.542501400,7.93250146484375,-1.9558140422835943,-0.7974865949749946,-1.1117781698405742
2024-12-04 21:49:09.552527400,7.94252734375,-2.3121207583189007,-0.7291530634611845,-0.2225853510707616
2024-12-04 21:49:09.562553300,7.95255322265625,-2.329931140297651,-0.860894068263471,0.3186825033009052
2024-12-04 21:49:09.572579300,7.962579345703125,-2.1387167867854235,-1.131943005990982,0.2319400393933057
2024-12-04 21:49:09.582605300,7.972605224609375,-2.046950357235968,-1.455036603732407,-0.4104062627524137
2024-12-04 21:49:09.592631300,7.98263134765625,-2.05740920740813,-1.775879207676649,-1.300097678694129
2024-12-04 21:49:09.602657300,7.9926572265625,-2.169493033321201,-1.8661092214390635,-1.7568161952883004
2024-12-04 21:49:09.612683300,8.002683349609375,-2.169139689838886,-1.8477537727981803,-1.9050538691222667
2024-12-04 21:49:09.622710300,8.012710205078125,-1.953204152046144,-1.837579292525351,-2.021359112122654
2024-12-04 21:49:09.632736500,8.022736572265625,-1.654724478818476,-1.8784812117561696,-2.2681582824736832
2024-12-04 21:49:09.642762500,8.032762451171875,-1.4901356819033622,-2.14059807048738,-2.775267262133956
2024-12-04 21:49:09.652788500,8.04278857421875,-1.5658604927122592,-2.5071076161071657,-3.330475963574648
2024-12-04 21:49:09.662814500,8.052814453125,-1.7184063851341604,-2.888713316310942,-3.75854647783339
2024-12-04 21:49:09.672840400,8.06284033203125,-1.9401240134596824,-3.2202862808451056,-4.0041725127518175
2024-12-04 21:49:09.682866400,8.072866455078126,-2.050503373542428,-3.541847846713662,-3.900328107395768
2024-12-04 21:49:09.692892400,8.082892333984375,-1.968832513810694,-3.8354341949418185,-3.67451093479693
2024-12-04 21:49:09.702918400,8.09291845703125,-1.804699643969536,-3.9196684754207727,-3.4728251638919114
2024-12-04 21:49:09.712944400,8.1029443359375,-1.7987509646981954,-3.783201318879425,-3.312415406227112
2024-12-04 21:49:09.722970400,8.112970458984375,-1.8739631498098368,-3.564485210457444,-3.009732436090708
2024-12-04 21:49:09.732996400,8.122996337890624,-1.8232687353610992,-3.428163307605684,-2.598372818136215
2024-12-04 21:49:09.743023400,8.1330234375,-1.7442893066704273,-3.330708895547688,-2.256604622802138
2024-12-04 21:49:09.753049300,8.14304931640625,-1.4474600309982897,-3.255118817034364,-1.9971394476234912
2024-12-04 21:49:09.763075300,8.153075439453126,-0.9050231328472494,-3.225038736069202,-1.8207202199220656
2024-12-04 21:49:09.773101300,8.163101318359375,-0.3264496301710605,-3.129373545515537,-1.6913620186030864
2024-12-04 21:49:09.783127300,8.173127197265625,0.0424012178778648,-2.9058967985630035,-1.4755729035437106
2024-12-04 21:49:09.793153300,8.1831533203125,0.0473912812501192,-2.513386842507124,-1.165704405817389
2024-12-04 21:49:09.803179300,8.19317919921875,-0.0784732327342033,-1.9931015704095365,-0.9282833046644926
2024-12-04 21:49:09.813205200,8.203205322265624,-0.0756122903451323,-1.4582821615248918,-0.7920540485322475
2024-12-04 21:49:09.823231500,8.2132314453125,0.1585419179663062,-0.9039280310869215,-0.6314402927279472
2024-12-04 21:49:09.833257500,8.223257568359376,0.2983706598952412,-0.2811398313701153,-0.5368617283672094
2024-12-04 21:49:09.843283500,8.233283447265626,0.3117451052531599,0.3303244257777929,-0.549173512929678
2024-12-04 21:49:09.853310500,8.243310546875,0.2567056473374366,0.9201321469128132,-0.695469989567995
2024-12-04 21:49:09.863336200,8.253336181640625,0.3129481974326074,1.6464730755627155,-0.9269891732007264
2024-12-04 21:49:09.873362200,8.263362060546875,0.4346304572962224,2.228665060997009,-0.8454021923601627
2024-12-04 21:49:09.883388200,8.27338818359375,0.6946629109688103,2.638029705742001,-0.463045381528139
2024-12-04 21:49:09.893414100,8.2834140625,1.0424328309357165,2.8934961666733026,0.126348498108983
2024-12-04 21:49:09.903440000,8.29343994140625,1.3698445841372011,3.0193846460551024,0.7140899343639612
2024-12-04 21:49:09.913465900,8.3034658203125,1.645906966112554,3.0504958236336708,1.0090174680680035
2024-12-04 21:49:09.923491800,8.313491943359375,1.7095885801672934,3.093873193067312,0.9076479283928872
2024-12-04 21:49:09.933517800,8.323517822265625,1.4977446956023572,3.373579776763916,0.8303308799564838
2024-12-04 21:49:09.943544000,8.3335439453125,0.9808043500185012,3.915637904730439,1.1326187132954595
2024-12-04 21:49:09.953570000,8.343570068359375,0.4825999768257141,4.31830918931663,1.635129259249568
2024-12-04 21:49:09.963597000,8.35359716796875,0.0381041052058339,4.086391361755132,2.025524999630451
2024-12-04 21:49:09.973623000,8.363623046875,-0.2597970374815165,4.018852195489407,1.9221826985776425
2024-12-04 21:49:09.983649000,8.37364892578125,-0.3901123933948576,4.126502422869205,1.99227388741374
2024-12-04 21:49:09.993675000,8.383675048828126,-0.244188987852633,3.8571874693274495,2.5350842950522896
2024-12-04 21:49:10.003701000,8.393700927734375,0.0367827934741973,3.976113123959303,3.2258269638374446
2024-12-04 21:49:10.013727000,8.40372705078125,0.303180982786417,4.030006042188406,3.683038524645567
2024-12-04 21:49:10.023753200,8.413753173828125,0.5394970453068614,3.310191300436854,3.873406490461528
2024-12-04 21:49:10.033779200,8.423779296875,0.6979498236849904,2.1528274374634027,3.766678054101765
2024-12-04 21:49:10.043805200,8.43380517578125,0.7960264592945575,0.9075988285541534,3.2153666523605584
2024-12-04 21:49:10.053831200,8.4438310546875,0.8711880832627416,-0.0839192231804132,2.096716258662939
2024-12-04 21:49:10.063857200,8.453857177734376,0.98395843013525,-0.6385001481115817,0.6886819368630648
2024-12-04 21:49:10.073884000,8.4638837890625,1.0234452218711376,-0.714778501150012,-0.3982832787603139
2024-12-04 21:49:10.083910000,8.473909912109375,0.901318433110416,-0.4708043250918388,-0.7929811002492905
2024-12-04 21:49:10.093935900,8.483935791015625,0.4907701315388083,-0.0905704977631568,-0.729349755077064
2024-12-04 21:49:10.103961900,8.4939619140625,0.0062473699569702,0.2995867576867342,-0.6824117705523968
2024-12-04 21:49:10.113988000,8.503988037109375,-0.3646110185220837,0.6640478463441133,-0.5254179588109255
2024-12-04 21:49:10.124014000,8.51401416015625,-0.5038970318764447,0.9954331793516874,-0.1588426544785499
2024-12-04 21:49:10.134040000,8.5240400390625,-0.3905450857236981,1.3410358382821082,0.4204068477630615
2024-12-04 21:49:10.144066000,8.534066162109376,-0.1063102109476923,1.6573498588860034,0.9675643446952104
2024-12-04 21:49:10.154092000,8.544092041015626,0.2524260703220963,1.88887897939086,1.3650608569920062
2024-12-04 21:49:10.164118000,8.554117919921875,0.5860825631320477,2.019850461125374,1.5082055916011332
2024-12-04 21:49:10.174144000,8.56414404296875,0.923213454054296,2.028366360536217,1.4098153599977492
2024-12-04 21:49:10.184170000,8.574169921875,1.3579635922074318,1.9680799418777224,1.1692197204619643
2024-12-04 21:49:10.194197000,8.584197021484375,1.8111466281518336,1.905055622687936,0.9180237764567136
2024-12-04 21:49:10.204223200,8.59422314453125,2.2050407320424914,1.8311323083430529,0.6282043795466423
2024-12-04 21:49:10.214249200,8.604249267578124,2.458601651613414,1.7348218056231737,0.4165454961597919
2024-12-04 21:49:10.224275200,8.614275146484376,2.608325180090964,1.7284131076246498,0.259474527528882
2024-12-04 21:49:10.234301200,8.62430126953125,2.5216066815808413,1.809101093798876,0.1300011753976345
2024-12-04 21:49:10.244327200,8.6343271484375,2.251356200754642,1.8990707030594347,-0.0990834745645523
2024-12-04 21:49:10.254353200,8.644353271484375,1.8676126117393368,1.952370916092396,-0.4473486307024955
2024-12-04 21:49:10.264379100,8.654379150390625,1.5152198542773725,1.990032245966792,-0.8160498411476612
2024-12-04 21:49:10.274405000,8.664405029296875,1.1614680834218858,2.054001737052202,-1.0312935972839594
2024-12-04 21:49:10.284431000,8.67443115234375,0.9159352797448634,2.121106019032001,-1.0478577785938978
2024-12-04 21:49:10.294456800,8.684456787109376,0.8689356281608343,2.1553876433402297,-1.0646224509119986
2024-12-04 21:49:10.304482800,8.69448291015625,0.8446089961558579,2.092844970187545,-1.1919406708359717
2024-12-04 21:49:10.314510000,8.704510009765626,0.7729387214347719,1.9710645106464624,-1.3271341541796922
2024-12-04 21:49:10.324536000,8.7145361328125,0.7273655955225229,1.858165861219168,-1.4256886364340782
2024-12-04 21:49:10.334562000,8.72456201171875,0.7550000369012355,1.7393442514836788,-1.315633101478219
2024-12-04 21:49:10.344588000,8.734588134765625,0.8200868415787815,1.5827829859405755,-1.1795277639865875
2024-12-04 21:49:10.354614000,8.744614013671875,0.8883438007250428,1.405386437639594,-1.0240852733403445
2024-12-04 21:49:10.364640000,8.754639892578124,0.8950207942709326,1.1130535966038704,-1.0436281782001255
2024-12-04 21:49:10.374666000,8.764666015625,0.8596119194984435,0.8363473637670278,-1.2327362070828676
2024-12-04 21:49:10.384692000,8.77469189453125,0.7277499186649918,0.5849263788342476,-1.5169892020374536
2024-12-04 21:49:10.394718000,8.784718017578125,0.4772559854492544,0.2827253469958901,-1.770832445681095
2024-12-04 21:49:10.404744200,8.794744140625,0.2585734870359301,-0.0389478625535964,-2.1295874316513537
2024-12-04 21:49:10.414770200,8.804770263671875,-0.1174780861720442,-0.3755988610044121,-2.570709150663018
2024-12-04 21:49:10.424797200,8.814797119140625,-0.691695439465344,-0.8280369238004088,-2.9499118813782927
2024-12-04 21:49:10.434823000,8.824822998046875,-1.3956743141815064,-1.429143453063071,-3.197071701735258
2024-12-04 21:49:10.444849000,8.834848876953124,-2.101234905131161,-2.089518748374283,-3.279479935830832
2024-12-04 21:49:10.454875000,8.844875,-2.753906494197249,-2.804329982750118,-3.162392018020153
2024-12-04 21:49:10.464900900,8.85490087890625,-3.4230309131532906,-3.518438621814549,-2.800466585320234
2024-12-04 21:49:10.474926800,8.8649267578125,-4.06895858091712,-4.21723570997864,-2.424631285211444
2024-12-04 21:49:10.484953000,8.874953125,-4.629714395090938,-4.901746790897846,-2.0144833811342715
2024-12-04 21:49:10.494979000,8.88497900390625,-4.960873518127203,-5.65938009891212,-1.762982901224494
2024-12-04 21:49:10.505005000,8.895005126953125,-5.058560569897294,-6.239865864950418,-1.5846271525025366
2024-12-04 21:49:10.515031000,8.905031005859374,-5.039159119334816,-6.509611026602983,-1.5003478638380765
2024-12-04 21:49:10.525057000,8.91505712890625,-5.02682512294054,-6.2107227725744245,-1.473132524654269
2024-12-04 21:49:10.535084000,8.925083984375,-4.958776253587007,-5.332355883723497,-1.4920628505736588
2024-12-04 21:49:10.545110000,8.935110107421876,-4.457361686176061,-4.562740753753483,-1.5194927092909811
2024-12-04 21:49:10.555136000,8.945135986328125,-3.602458675020933,-4.072287725339829,-1.4488029700398444
2024-12-04 21:49:10.565162000,8.955161865234375,-2.5536402347013354,-3.688293960955739,-1.2905495136260985
2024-12-04 21:49:10.575188200,8.965188232421875,-1.525340266275406,-3.319332638269662,-1.079504378223419
2024-12-04 21:49:10.585214200,8.975214111328125,-0.8145771382465958,-2.909786791738868,-0.9011813627272844
2024-12-04 21:49:10.595240200,8.985240234375,-0.3981356869831681,-2.463271104729176,-0.9549544539690016
2024-12-04 21:49:10.605266200,8.99526611328125,0.0084507252201437,-1.9587591558247803,-1.105980297216773
2024-12-04 21:49:10.615292200,9.005292236328126,0.3461453875049948,-1.4256149866759775,-1.2748054165273903
2024-12-04 21:49:10.625318100,9.015318115234376,0.5761717022314667,-0.7257634210228919,-1.4103198023885488
2024-12-04 21:49:10.635344100,9.02534423828125,0.6594251549795269,-0.1086135194540023,-1.532715763479471
2024-12-04 21:49:10.645370000,9.0353701171875,0.8529951317071914,0.4051385514825582,-1.7356968348920343
2024-12-04 21:49:10.655396900,9.04539697265625,1.059058679305017,0.8093921368241309,-1.9602952793508768
2024-12-04 21:49:10.665423000,9.055423095703125,1.1410139089360831,1.044843399208784,-2.166794003495574
2024-12-04 21:49:10.675449000,9.065448974609374,1.0311541888132691,1.2021809098213911,-2.283776707366109
2024-12-04 21:49:10.685475000,9.07547509765625,0.7594350967392325,1.265568801626563,-1.917590110090375
2024-12-04 21:49:10.695501000,9.0855009765625,0.8894035389110445,1.2830652953505517,-1.355892631152272
2024-12-04 21:49:10.705527000,9.095527099609376,1.1863606787465513,1.2460095301538705,-0.8737935895860195
2024-12-04 21:49:10.715553000,9.105552978515624,1.2185527834296226,1.1465391020983458,-0.4676876543760299
2024-12-04 21:49:10.725579000,9.1155791015625,1.1687408509038388,1.0933172149986028,-0.2264782668560743
2024-12-04 21:49:10.735605000,9.12560498046875,1.1917770047068594,1.19505851059556,-0.2145335620403289
2024-12-04 21:49:10.745631000,9.135630859375,1.334180565559864,1.5573346564292907,-0.2606827342748641
2024-12-04 21:49:10.755657000,9.145656982421874,1.6392530611813068,2.131096082648635,-0.2396639116436243
2024-12-04 21:49:10.765683000,9.155682861328126,2.007401021657884,2.73917186640203,-0.0946785176038742
2024-12-04 21:49:10.775710200,9.165710205078126,2.191679584557563,3.4628064587026834,0.1054629464685916
2024-12-04 21:49:10.785736200,9.175736083984376,2.187473657300324,4.220879911699891,0.5274976876944303
2024-12-04 21:49:10.795762200,9.18576220703125,1.952158880776912,4.718366492012143,1.1674860285371542
2024-12-04 21:49:10.805788200,9.1957880859375,1.5749670514926313,4.782815291047096,1.883798315125704
2024-12-04 21:49:10.815814100,9.205814208984377,1.2641476827822624,4.310080874675512,2.2001801402688024
2024-12-04 21:49:10.825839900,9.21583984375,1.1000338099025189,3.461631569704413,2.060233032657206
2024-12-04 21:49:10.835865900,9.225865966796874,0.933004780228436,2.5717402472764253,1.902524350644648
2024-12-04 21:49:10.845891800,9.235891845703126,0.5713245544612408,1.927458008632064,1.9159537410601968
2024-12-04 21:49:10.855918000,9.24591796875,0.1121571834102272,1.2078034258782864,2.271490934027731
2024-12-04 21:49:10.865944000,9.255944091796875,-0.165008191370964,1.0731909572929144,2.377608545012772
2024-12-04 21:49:10.875970000,9.265969970703123,-0.2271370230257511,1.2410486928761004,2.207525826856494
2024-12-04 21:49:10.885997300,9.275997314453123,-0.1336465461626649,1.1902438037902117,2.423456980735063
2024-12-04 21:49:10.896023300,9.286023193359377,0.0463633995071053,1.1189660355180502,2.853483597497642
2024-12-04 21:49:10.906049300,9.29604931640625,0.3049778030753135,1.1418383770614862,2.907009143719077
2024-12-04 21:49:10.916075300,9.3060751953125,0.5914744853034615,1.1082663623273372,2.525839789105952
2024-12-04 21:49:10.926101200,9.316101318359374,0.7867270082905888,1.0645113917529585,1.9067253094658247
2024-12-04 21:49:10.936127200,9.326127197265626,0.7964107824370265,0.9839233588218688,1.3218348787277936
2024-12-04 21:49:10.946153200,9.3361533203125,0.7099225855514407,0.8841758673906326,0.8712392289280891
2024-12-04 21:49:10.956179200,9.34617919921875,0.5755637994661927,0.8267156120687723,0.4464396991640329
2024-12-04 21:49:10.966205200,9.356205078125,0.4343985482364892,0.8006003430813551,0.0905260740995407
2024-12-04 21:49:10.976231200,9.366231201171876,0.1848568011790514,0.7916676795631646,-0.1598591380447149
2024-12-04 21:49:10.986257400,9.37625732421875,-0.0970227426424622,0.8328729656547308,-0.3076660192459821
2024-12-04 21:49:10.996283400,9.386283447265624,-0.3875520413875579,0.9152718474000692,-0.248068167373538
2024-12-04 21:49:11.006310100,9.39631005859375,-0.5797548214152455,1.07769352940917,0.1048223104774951
2024-12-04 21:49:11.016336100,9.406336181640626,-0.5204769952774048,1.3973124367773533,0.6771890674680471
2024-12-04 21:49:11.026362000,9.416362060546875,-0.2940846531391143,1.769170649948716,1.219902444472909
2024-12-04 21:49:11.036388000,9.42638818359375,0.0105120416641235,2.128125542405248,1.5239648862689732
2024-12-04 21:49:11.046414000,9.4364140625,0.3241571353197097,2.388071194577217,1.489052562841773
2024-12-04 21:49:11.056440000,9.446440185546876,0.5893719600662589,2.4722838477462528,1.0515233153641224
2024-12-04 21:49:11.066466300,9.45646630859375,0.8591144913703203,2.3170862717717884,0.320299875369668
2024-12-04 21:49:11.076492300,9.4664921875,1.2691954676911237,2.0842139199644327,-0.2463835752874612
2024-12-04 21:49:11.086518300,9.476518310546876,1.8049708621263505,1.9244021281927823,-0.395105233246088
2024-12-04 21:49:11.096544300,9.486544189453124,2.194760745568573,1.880222794726491,-0.2919137388408184
2024-12-04 21:49:11.106570200,9.4965703125,2.212355731230974,1.914268856713176,-0.1839595600783825
2024-12-04 21:49:11.116596200,9.50659619140625,1.973392661333084,2.023394417342544,-0.2001525699883699
2024-12-04 21:49:11.126623200,9.516623291015623,1.7332067716419697,2.116015417894721,-0.3845049287766218
2024-12-04 21:49:11.136649200,9.526649169921876,1.667382592600584,2.1977724946051835,-0.660935851803422
2024-12-04 21:49:11.146675200,9.53667529296875,1.7000503519713877,2.16784555837512,-0.8905968403488397
2024-12-04 21:49:11.156701400,9.546701416015624,1.6797312020421027,2.0714239964962005,-0.9795575648277998
2024-12-04 21:49:11.166727400,9.5567275390625,1.4804551226273177,1.9462100553750992,-1.0321960990816357
2024-12-04 21:49:11.176753400,9.56675341796875,1.2638836250185963,1.725357811707258,-1.014648751953244
2024-12-04 21:49:11.186779100,9.576779052734375,1.08945264852494,1.5088409668952223,-1.0432026462644337
2024-12-04 21:49:11.196805000,9.58680517578125,0.9802151519536972,1.2419850969433783,-1.2117723295092582
2024-12-04 21:49:11.206831000,9.5968310546875,0.8153633201882242,0.9522335045725108,-1.4179571653991936
2024-12-04 21:49:11.216857000,9.606857177734376,0.5613920662507415,0.6698582861885428,-1.5321113678455351
2024-12-04 21:49:11.226883000,9.616883056640624,0.3323635303899646,0.4309136287301778,-1.5589105274438857
2024-12-04 21:49:11.236910000,9.62691015625,-0.1206406418561935,0.2644669289886951,-1.7382868513852356
2024-12-04 21:49:11.246936300,9.636936279296876,-0.5891092174768447,-0.033183892199397,-2.037991097971797
2024-12-04 21:49:11.256962300,9.64696240234375,-0.9758040575131772,-0.3489356027454137,-2.303410797640681
2024-12-04 21:49:11.266988300,9.65698828125,-1.3059601409867403,-0.6211699508652091,-2.771700509563088
2024-12-04 21:49:11.277014300,9.66701416015625,-1.5802712953805922,-0.8857698585838079,-3.2387574648201465
2024-12-04 21:49:11.287040300,9.677040283203125,-1.8657456488236783,-1.2419620083287355,-3.633499125450849
2024-12-04 21:49:11.297066200,9.687066162109376,-2.219250751441717,-1.8149758310511708,-3.848556419104337
2024-12-04 21:49:11.307092200,9.69709228515625,-2.692719327306748,-2.604184134763479,-3.7354192847460506
2024-12-04 21:49:11.317118200,9.7071181640625,-3.1636998857483265,-3.522067918227613,-3.229147340431809
2024-12-04 21:49:11.327144200,9.717144287109376,-3.535829024815559,-4.433344850772619,-2.649599732026457
2024-12-04 21:49:11.337170200,9.727170166015624,-3.8412677234008905,-5.309112955302,-2.1772277192264795
2024-12-04 21:49:11.347196200,9.737196044921877,-4.093388381035625,-6.045094988000392,-1.80157771255672
2024-12-04 21:49:11.357223200,9.74722314453125,-4.278233784037829,-6.541710630697011,-1.474223827022314
2024-12-04 21:49:11.367249200,9.757249267578125,-4.338958886374533,-6.688024642992019,-1.2289765622884037
2024-12-04 21:49:11.377275100,9.767275146484376,-4.3087019875377415,-6.300472601604461,-1.1956740121454
2024-12-04 21:49:11.387301000,9.777301025390624,-4.1032285147875545,-5.584329241842031,-1.300395200335979
2024-12-04 21:49:11.397327000,9.7873271484375,-3.488609008479118,-4.895380470736325,-1.369751645156741
2024-12-04 21:49:11.407353000,9.79735302734375,-2.6705007734969257,-4.253645578487217,-1.3063175761222838
2024-12-04 21:49:11.417379000,9.807379150390624,-2.063421891826391,-3.6096912566229697,-1.185669920003414
2024-12-04 21:49:11.427405000,9.817405029296877,-1.6805238137245178,-2.970605417577922,-1.084309148156643
2024-12-04 21:49:11.437431000,9.82743115234375,-1.3177996318623424,-2.3834371050357817,-1.1373527560800314
2024-12-04 21:49:11.447457300,9.837457275390625,-0.8575786601051688,-1.862108461365104,-1.3339765674203634
2024-12-04 21:49:11.457483300,9.847483154296874,-0.2667097394794225,-1.4044991334110497,-1.730692158472538
2024-12-04 21:49:11.467509200,9.85750927734375,0.4103977871850133,-0.9284136530458926,-2.127035409080982
2024-12-04 21:49:11.477536300,9.867536376953124,1.0414496651172638,-0.5109563027381897,-2.370482346394658
2024-12-04 21:49:11.487562200,9.877562255859376,1.622581035582721,-0.1246487084537744,-2.498515436589717
2024-12-04 21:49:11.497588200,9.887588134765624,1.9470275092378253,0.2232967142105102,-2.4387644399821755
2024-12-04 21:49:11.507614200,9.8976142578125,1.94771563763246,0.5554740743786096,-2.2505098130583763
2024-12-04 21:49:11.517640200,9.90764013671875,1.7647285758480429,0.9280500804305076,-1.9804040013998745
2024-12-04 21:49:11.527666400,9.91766650390625,1.6040052221894263,1.2803197960346937,-1.5845558408319949
2024-12-04 21:49:11.537692400,9.9276923828125,1.6799124038279056,1.6152052461177109,-1.2475590976834297
2024-12-04 21:49:11.547718400,9.937718505859374,1.6497699251510205,1.7429770550280808,-0.8022019330590963
2024-12-04 21:49:11.557744400,9.947744384765626,1.6492014776133,1.778672637787461,-0.1782446895629167
2024-12-04 21:49:11.567770400,9.957770263671875,1.7195266213357447,1.7878239124923945,0.4360995069354772
2024-12-04 21:49:11.577796000,9.967796142578123,1.838184418811649,1.872780077505112,0.932424642252922
2024-12-04 21:49:11.587823000,9.977822998046875,1.8746609228156503,2.137149975860119,1.221926059255004
2024-12-04 21:49:11.597849000,9.98784912109375,1.702291408896446,2.58911340688169,1.3822972384750842
2024-12-04 21:49:11.607875000,9.997875,1.3867081867851316,3.084835315608978,1.3176906185299158
2024-12-04 21:49:11.617901300,10.0079013671875,1.042511302999407,3.573541792616248,0.9732073190182446
2024-12-04 21:49:11.627927300,10.01792724609375,0.6540133590638637,3.9834675783753393,0.8327484624922276
2024-12-04 21:49:11.637953300,10.027953369140626,0.2148128173731267,4.253210986462236,1.1875251924812793
2024-12-04 21:49:11.647979300,10.037979248046875,-0.251467016031593,4.30855468802154,1.6845809801608322
2024-12-04 21:49:11.658005200,10.048005126953123,-0.5699857070729136,4.076385516047478,1.831969343689084
2024-12-04 21:49:11.668031200,10.05803125,-0.6276102130457758,3.61772112608254,1.6336656164377927
2024-12-04 21:49:11.678057200,10.06805712890625,-0.5411188012897968,2.9127169999718663,1.2517892825990915
2024-12-04 21:49:11.688083200,10.078083251953124,-0.5210951271757484,2.263420148035884,1.0321195267140866
2024-12-04 21:49:11.698109200,10.088109130859374,-0.5426059711076319,1.7971598961144684,1.0783177987873551
2024-12-04 21:49:11.708136400,10.098136474609374,-0.5436693625554442,1.4192483742535114,1.2206103004813194
2024-12-04 21:49:11.718162200,10.108162109375,-0.3810920515932142,1.1122855348408225,1.5225696325182914
2024-12-04 21:49:11.728188200,10.118188232421875,-0.0376218746468424,0.8617506850928067,2.066158623313904
2024-12-04 21:49:11.738214100,10.128214111328123,0.3695614805363118,0.7807891426742076,2.824002943730354
2024-12-04 21:49:11.748240100,10.138240234375,0.6498366579011082,0.841430950641632,3.3830414325922726
2024-12-04 21:49:11.758266000,10.14826611328125,0.8205892381429671,0.8930810583800077,3.368344214197993
2024-12-04 21:49:11.768292000,10.1582919921875,0.8914055263832211,0.9023445612877606,2.9283097059011456
2024-12-04 21:49:11.778318000,10.168318115234374,0.7290089788153767,0.8181067736774682,2.3583669611871243
2024-12-04 21:49:11.788344000,10.178343994140626,0.4253470806442201,0.7379775904297828,1.8142682673037047
2024-12-04 21:49:11.798370000,10.1883701171875,0.0274561622023582,0.7387778008967637,1.400317463812232
2024-12-04 21:49:11.808396000,10.19839599609375,-0.3625871114790439,0.7835445788621902,1.016387120053172
2024-12-04 21:49:11.818423300,10.20842333984375,-0.6493921290040016,0.8981576309919357,0.7197603812158108
2024-12-04 21:49:11.828449300,10.21844921875,-0.6739385412395,0.9813795195579528,0.5749690484434365
2024-12-04 21:49:11.838475300,10.228475341796877,-0.3365355553776025,1.115753503212333,0.5738157867550849
2024-12-04 21:49:11.848501200,10.238501220703125,0.1651964074194431,1.2944938673377036,0.6621393823742866
2024-12-04 21:49:11.858527000,10.24852685546875,0.5973088905453682,1.4869967993557451,0.7617734765589237
2024-12-04 21:49:11.868553000,10.258552978515626,1.0493851342916487,1.6967793674767015,0.6861825212627649
2024-12-04 21:49:11.878579000,10.268578857421875,1.734680935847759,1.916384241431952,0.4734469485551119
2024-12-04 21:49:11.888605000,10.27860498046875,2.351841358810664,2.117179200977087,0.1669242541253566
2024-12-04 21:49:11.898631000,10.288630859375,2.756093190586567,2.2140385697513816,-0.1261076750904321
2024-12-04 21:49:11.908657200,10.2986572265625,2.910696600060165,2.234714278033376,-0.3762316059499979
2024-12-04 21:49:11.918683100,10.30868310546875,2.8131127164036034,2.170691595456004,-0.6787684456139802
2024-12-04 21:49:11.928709000,10.318709228515624,2.5614488626256584,2.1321032138645646,-0.9270224909484386
2024-12-04 21:49:11.938735900,10.32873583984375,2.136626098116487,2.1906302216351032,-1.098732810306549
2024-12-04 21:49:11.948761900,10.338761962890626,1.6163723902009426,2.3368010260671377,-1.147823296689987
2024-12-04 21:49:11.958787800,10.348787841796875,1.213369243311882,2.4599159490823745,-1.1350134994775056
2024-12-04 21:49:11.968813800,10.358813720703123,0.9278294234171508,2.537747961303592,-1.0188333441615105
2024-12-04 21:49:11.978839800,10.36883984375,0.7025473806083202,2.565913733080029,-0.7509083836734295
2024-12-04 21:49:11.988865800,10.37886572265625,0.5823319784268737,2.5363567992061373,-0.4377665633648633
2024-12-04 21:49:11.998892000,10.38889208984375,0.5576628165945411,2.4971464863240715,-0.4883814828366041
2024-12-04 21:49:12.008918000,10.39891796875,0.6970084511816501,2.322813417246937,-0.5923720186650753
2024-12-04 21:49:12.018944000,10.408944091796876,0.9030687839090824,1.980533765259385,-0.7425280933409929
2024-12-04 21:49:12.028970000,10.418969970703126,1.1261363655388354,1.525221608331799,-1.0107365469455718
2024-12-04 21:49:12.038996000,10.428995849609375,1.1965174772322178,0.9758505270034076,-1.3196797465205192
2024-12-04 21:49:12.049023000,10.43902294921875,1.0941593649111687,0.4761562075138091,-1.6459855843067168
2024-12-04 21:49:12.059049000,10.449049072265623,0.8380784253433347,0.0706020609676837,-2.001479522654414
2024-12-04 21:49:12.069075000,10.459074951171877,0.3507657407820224,-0.3303340703889727,-2.404026304078102
2024-12-04 21:49:12.079101000,10.469100830078125,-0.1953212043091654,-0.6792103441625833,-2.6187995200932024
2024-12-04 21:49:12.089127200,10.479127197265624,-0.7391267604649067,-0.8896753415897488,-2.7163205676466227
2024-12-04 21:49:12.099153200,10.489153076171876,-1.237017245402932,-1.0877470136508345,-2.6425147422015667
2024-12-04 21:49:12.109179100,10.49917919921875,-1.6833184128791092,-1.3151622690960765,-2.3100702555298804
2024-12-04 21:49:12.119205000,10.509205078125,-1.9473475349724287,-1.657287022782862,-2.2306495128124952
2024-12-04 21:49:12.129231000,10.519231201171875,-2.273597550918162,-2.231836092248559,-2.4001737203031777
2024-12-04 21:49:12.139256800,10.5292568359375,-2.810883642177284,-2.8143644700303674,-2.7155764712810515
2024-12-04 21:49:12.149282800,10.53928271484375,-3.357526467585564,-3.36110578737706,-2.8602754495948552
2024-12-04 21:49:12.159308800,10.549308837890624,-3.737435300743579,-4.007670291739702,-2.7332249406963585
2024-12-04 21:49:12.169336000,10.559336181640624,-3.9091307147935033,-4.674036059637367,-2.4968448730289934
2024-12-04 21:49:12.179362000,10.569362060546876,-3.833964999172091,-5.31133296943903,-2.390529693645239
2024-12-04 21:49:12.189388000,10.579387939453126,-3.6945407463908193,-5.813192942529916,-2.390427402314544
2024-12-04 21:49:12.199414000,10.5894140625,-3.7298002758204936,-6.101451081472635,-2.5059125611037016
2024-12-04 21:49:12.209440000,10.59943994140625,-3.799414494794607,-5.906312540253997,-2.5642098517715928
2024-12-04 21:49:12.219466000,10.609466064453123,-3.708963531757891,-5.3568567032516,-2.602657948109508
2024-12-04 21:49:12.229492000,10.619491943359376,-3.458426636183262,-4.731420619374513,-2.47650584935546
2024-12-04 21:49:12.239518000,10.62951806640625,-3.0446579112604257,-4.245514002218842,-2.2985937527477738
2024-12-04 21:49:12.249544000,10.6395439453125,-2.2671450137779114,-3.847382991410792,-2.0526427236586806
2024-12-04 21:49:12.259570000,10.64956982421875,-1.49915690048784,-3.482738070619106,-1.7967285189598798
2024-12-04 21:49:12.269596000,10.659595947265624,-0.9326528980508446,-3.2467826581045984,-1.6136673690259455
2024-12-04 21:49:12.279623000,10.669622802734375,-0.5881701830610633,-2.849842902907729,-1.2950783892273905
2024-12-04 21:49:12.289649000,10.67964892578125,-0.4316775988399982,-2.369243744510412,-0.9772568866699932
2024-12-04 21:49:12.299675000,10.6896748046875,-0.3222682528331875,-1.9299813896298408,-0.7929314158886671
2024-12-04 21:49:12.309700900,10.699700927734376,-0.2088815276280045,-1.481284851449728,-0.8467857556730508
2024-12-04 21:49:12.319726800,10.709726806640624,0.046104748570919,-0.9402923068881034,-0.9010024990290404
2024-12-04 21:49:12.329752800,10.7197529296875,0.160591836233437,-0.2562824534893035,-1.0810013387829065
2024-12-04 21:49:12.339778800,10.72977880859375,0.3110144528910517,0.5463596245527267,-1.2270458864867686
2024-12-04 21:49:12.349804800,10.7398046875,0.4152383590839803,1.3472668416261673,-0.861300603237748
2024-12-04 21:49:12.359830800,10.749830810546875,0.5892692303441465,2.085438493323326,-0.2927309004426002
2024-12-04 21:49:12.369857000,10.75985693359375,0.9306158392652868,2.656027719247341,-0.1112023669034242
2024-12-04 21:49:12.379883000,10.769883056640625,1.164718609650433,3.034256636494398,-0.1165092411398887
2024-12-04 21:49:12.389910000,10.779909912109376,1.381792211562395,3.409461822006106,-0.2304243741333484
2024-12-04 21:49:12.399936000,10.78993603515625,1.6815734689079225,3.753557583504915,-0.241924842312932
2024-12-04 21:49:12.409962000,10.7999619140625,1.937338182133436,3.982596640759706,-0.0394955595642328
2024-12-04 21:49:12.419988000,10.809988037109376,2.091093158084154,4.153443621286749,0.4120055146425962
2024-12-04 21:49:12.430014000,10.820013916015624,2.103007906153053,4.261273296886682,1.078855558925867
2024-12-04 21:49:12.440040000,10.8300400390625,1.9230593352817,4.061289069202542,1.5575889234513045
2024-12-04 21:49:12.450066000,10.84006591796875,1.5817103882730006,3.666861296826601,1.6306167502611877
2024-12-04 21:49:12.460092200,10.850092041015625,1.2005483401834964,3.147699475800991,1.5931716934859752
2024-12-04 21:49:12.470118100,10.8601181640625,0.8441700202167034,2.475771689862013,1.4285861114412546
2024-12-04 21:49:12.480144100,10.87014404296875,0.4626245257675647,1.784268265837431,1.3128098607510328
2024-12-04 21:49:12.490170000,10.880170166015626,0.1323030225992202,0.94801968626976,1.4196628002732992
2024-12-04 21:49:12.500196000,10.890196044921876,-0.2195017058417201,1.1493021370708942,0.5529226363301277
2024-12-04 21:49:12.510222800,10.900222900390624,-0.4495660144910216,1.7392974897325038,0.184152452301979
2024-12-04 21:49:12.520248800,10.910248779296875,-0.4903434305593371,1.9175047698944805,1.2580208704650402
2024-12-04 21:49:12.530274800,10.92027490234375,-0.3606359774112701,2.5764111616969108,1.3165759352862834
2024-12-04 21:49:12.540300800,10.93030078125,0.1048477371796965,3.251971166658401,1.1982581834197044
2024-12-04 21:49:12.550327000,10.9403271484375,0.8867980325877666,3.644954585444927,1.6225731445372105
2024-12-04 21:49:12.560353000,10.95035302734375,1.7480244015455244,3.367096259963512,2.6712621132582424
2024-12-04 21:49:12.570379000,10.96037890625,2.4975533135592936,2.518434773546457,3.33994580270946
2024-12-04 21:49:12.580405000,10.970405029296876,2.9255498857989903,1.444790227267146,3.3067116416275497
2024-12-04 21:49:12.590431000,10.980430908203124,2.897713492107392,0.7142839956313372,2.673247734117508
2024-12-04 21:49:12.600457000,10.99045703125,2.482269235187769,0.2298135487586259,1.9102146128863096
2024-12-04 21:49:12.610483000,11.00048291015625,1.8563209640048444,-0.1493523570775985,1.2783224847376349
2024-12-04 21:49:12.620510000,11.010510009765625,1.1267328701272603,0.016328034466505,0.8536866211026907
2024-12-04 21:49:12.630536200,11.0205361328125,0.3764832426235079,0.5086795899778604,0.5765601170271635
2024-12-04 21:49:12.640562200,11.030562255859374,-0.2061097248271107,0.713676092866063,0.4052858509987592
2024-12-04 21:49:12.650588200,11.040588134765626,-0.5338730679452419,0.0534767386436462,0.4676794710695743
2024-12-04 21:49:12.660614000,11.05061376953125,-0.8398702771961688,0.0828401957720518,0.0755430245012044
2024-12-04 21:49:12.670639900,11.060639892578124,-1.1637085558250546,1.06215810662508,-0.3743149586737155
2024-12-04 21:49:12.680665900,11.070665771484377,-1.2409455247625707,1.3010966266036033,-0.4828302784502506
2024-12-04 21:49:12.690691800,11.08069189453125,-0.9899673151612282,1.1754565690249204,-0.1632803446650505
2024-12-04 21:49:12.700717800,11.0907177734375,-0.468687186807394,0.6418804381996392,0.3315747180998325
2024-12-04 21:49:12.710743800,11.100743896484374,0.012644669778645,0.5923714341431856,0.2417705285340547
2024-12-04 21:49:12.720769800,11.110769775390626,0.3998258320271968,0.9831015210449696,0.1360422091275453
2024-12-04 21:49:12.730797000,11.120797119140626,0.8605670282661915,1.2908031961262223,0.3191302470684051
2024-12-04 21:49:12.740823000,11.130822998046876,1.465889713919163,1.5379226844727991,0.6356932739973068
2024-12-04 21:49:12.750849000,11.14084912109375,1.895015582449734,1.8060422907501457,1.055246135279536
2024-12-04 21:49:12.760875000,11.150875,1.9496806540951133,2.1148767692536112,1.387030696737766
2024-12-04 21:49:12.770901000,11.16090087890625,1.7638075154803692,2.516083241984248,1.557604705542326
2024-12-04 21:49:12.780927000,11.170927001953125,1.6344041598454118,2.985768207657337,1.5558704290956258
2024-12-04 21:49:12.790953000,11.180952880859374,1.6086989329636097,3.318089944732189,1.253076984322071
2024-12-04 21:49:12.800979000,11.19097900390625,1.6919477095365525,3.4022464837998148,0.5576391434580087
2024-12-04 21:49:12.811005000,11.2010048828125,1.851557548995316,3.2521406780064104,-0.2478670918434858
2024-12-04 21:49:12.821031000,11.211031005859375,2.164863327693939,2.9662668038517235,-0.9780512519180774
2024-12-04 21:49:12.831057200,11.22105712890625,2.579011115062237,2.6317051788955927,-1.5342372739583252
2024-12-04 21:49:12.841084000,11.231083984375,2.6186194873511788,2.3010849850416184,-1.8966665645271537
2024-12-04 21:49:12.851110000,11.24110986328125,2.4626854137957093,1.9687883824080228,-2.3465414988368747
2024-12-04 21:49:12.861136400,11.251136474609376,2.099942527233064,1.7055454422563314,-2.777670816144347
2024-12-04 21:49:12.871162600,11.26116259765625,1.5285188963115215,1.4528756263062357,-3.116342214506864
2024-12-04 21:49:12.881188600,11.271188720703124,0.6810384363725781,1.0350424284234645,-3.283389802750945
2024-12-04 21:49:12.891214600,11.281214599609376,-0.2867342903763055,0.568272765675187,-3.2259985210120674
2024-12-04 21:49:12.901240600,11.291240478515626,-1.2622022478029131,-0.0662149319246411,-3.2377146777689454
2024-12-04 21:49:12.911266600,11.3012666015625,-2.1291607306718827,-0.7654042342767119,-3.1669027734428643
2024-12-04 21:49:12.921292500,11.31129248046875,-3.0944486548677084,-1.5846289060682055,-3.402287984853982
2024-12-04 21:49:12.931318500,11.321318603515625,-4.106747921085358,-2.4590701459079978,-3.781163383311033
2024-12-04 21:49:12.941344500,11.331344482421876,-4.890105452942848,-3.3021710755884643,-3.804093592521548
2024-12-04 21:49:12.951370500,11.34137060546875,-5.285825603216886,-4.189794745345414,-3.6748008576542137
2024-12-04 21:49:12.961397800,11.351397705078124,-5.179723189800978,-5.06686721047163,-3.417183356168866
2024-12-04 21:49:12.971423700,11.361423828125,-4.986584882488846,-5.893632506901025,-2.9957430737048387
2024-12-04 21:49:12.981449700,11.37144970703125,-4.843903673738241,-6.560209579461812,-2.563290398839116
2024-12-04 21:49:12.991475500,11.381475341796875,-4.647254435695707,-6.807749923568964,-2.1586235565215346
2024-12-04 21:49:13.001501400,11.39150146484375,-4.389126354339719,-6.413174851676821,-1.844748161241412
2024-12-04 21:49:13.011527400,11.40152734375,-4.075815899465978,-5.607293353322148,-1.5873124460637569
2024-12-04 21:49:13.021553400,11.411553466796876,-3.632150925712287,-4.964993812927603,-1.4452262805968523
2024-12-04 21:49:13.031579400,11.421579345703124,-3.0540868338629603,-4.584665877574682,-1.4993214433997868
2024-12-04 21:49:13.041605400,11.43160546875,-2.3093162222921846,-4.402081112980842,-1.667929120567441
2024-12-04 21:49:13.051631400,11.44163134765625,-1.5881342838406562,-4.248579819530248,-1.7518734781891103
2024-12-04 21:49:13.061658600,11.45165869140625,-1.2200810159102082,-4.044793861475586,-1.6193927609354255
2024-12-04 21:49:13.071684600,11.4616845703125,-1.1484887748613952,-3.5841707386583086,-1.2988491399377584
2024-12-04 21:49:13.081710600,11.471710693359377,-1.0493243440151214,-2.949148495790362,-0.8430056526124476
2024-12-04 21:49:13.091736600,11.481736572265625,-0.8242962759673595,-2.125181890168786,-0.5822334864884614
2024-12-04 21:49:13.101762600,11.491762451171876,-0.49927141790241,-1.2717846074014902,-0.6465262181788682
2024-12-04 21:49:13.111788500,11.50178857421875,-0.1244268823966383,-0.3242559195190668,-0.819194568914175
2024-12-04 21:49:13.121814500,11.511814453125,0.3215200648143887,0.6269967573225498,-1.0116846414506435
2024-12-04 21:49:13.131840500,11.521840576171876,0.6587599690690636,1.4096733211785557,-1.370208741274476
2024-12-04 21:49:13.141866500,11.531866455078124,1.0090519548594952,2.097207257050276,-1.828268735605478
2024-12-04 21:49:13.151892700,11.541892822265623,1.2389417837247252,2.667391409304738,-2.027151139527559
2024-12-04 21:49:13.161918700,11.551918701171877,1.573960797059536,3.122863725230097,-1.6133984889566897
2024-12-04 21:49:13.171944700,11.56194482421875,1.9211176996946333,3.3277328023463486,-0.9298895708173512
2024-12-04 21:49:13.181971500,11.571971435546876,2.0005740982472897,3.254582225939631,-0.1817407149851322
