time,seconds_elapsed,z,y,x
2024-12-04 21:48:59.967965700,0.141965576171875,-1.7576321878463028,5.068803146970272,6.317153687292337
2024-12-04 21:48:59.978039600,0.15203955078125,-1.6031939058065414,5.77456305988431,5.50713961917758
2024-12-04 21:48:59.988114700,0.16211474609375,-0.9978010775268076,6.18605711787343,4.778010521113872
2024-12-04 21:48:59.998188500,0.1721884765625,-0.3480652496516704,5.980511164408922,4.935324650850892
2024-12-04 21:49:00.008263700,0.182263671875,0.5940834987580775,6.255339912936091,5.512787269675731
2024-12-04 21:49:00.018337500,0.192337646484375,3.262504251110553,6.694745475679635,7.411254746145009
2024-12-04 21:49:00.028412700,0.20241259765625,4.151792931470275,5.234801518422365,8.958008971849083
2024-12-04 21:49:00.038486500,0.212486572265625,1.3606547309875487,3.758998605515063,8.432871583545207
2024-12-04 21:49:00.048561700,0.222561767578125,-2.6180045703232286,3.927347047224641,7.038619118860364
2024-12-04 21:49:00.058635500,0.232635498046875,-4.9073441725134845,4.974143334066867,4.625459075734019
2024-12-04 21:49:00.068709600,0.242709716796875,-5.190287253913283,5.20640602954328,0.4834732525289058
2024-12-04 21:49:00.078784500,0.252784423828125,-2.635609785118699,4.705747833457589,-2.874076595932245
2024-12-04 21:49:00.088858600,0.262858642578125,1.103334166622162,2.889726000484824,-5.081686009418964
2024-12-04 21:49:00.098933500,0.27293359375,2.7435777001455426,0.2366728400688618,-5.29316778267324
2024-12-04 21:49:00.109007600,0.283007568359375,2.5820816085487603,-1.7667352394953368,-4.388609052467346
2024-12-04 21:49:00.119082500,0.29308251953125,0.8548778767138719,-3.073466949376464,-4.030926664164662
2024-12-04 21:49:00.129156600,0.303156494140625,-1.995302879846096,-3.60676280195564,-4.487275178402662
2024-12-04 21:49:00.139230500,0.31323046875,-4.704802077040076,-3.842851485460996,-5.179994407957792
2024-12-04 21:49:00.149305600,0.3233056640625,-5.473935268712044,-4.322326608264446,-5.662834623280167
2024-12-04 21:49:00.159379500,0.33337939453125,-3.423798390394449,-4.574126655642688,-5.960011981737614
2024-12-04 21:49:00.169454600,0.34345458984375,-1.0562877532869577,-4.397534409461915,-5.811316042742133
2024-12-04 21:49:00.179528400,0.353528564453125,0.3848427824288606,-4.261662003943324,-4.8649353558510535
2024-12-04 21:49:00.189603600,0.363603515625,1.3066443238586187,-4.983302792078256,-3.685695761156082
2024-12-04 21:49:00.199677400,0.373677490234375,1.5902771410882472,-4.397264068087935,-3.375582348757982
2024-12-04 21:49:00.209752600,0.383752685546875,1.1941086625248194,-3.0075562610954045,-2.300822534713149
2024-12-04 21:49:00.219826400,0.393826416015625,0.625651772454381,-2.127762700442225,-1.0669266362011431
2024-12-04 21:49:00.229900500,0.403900634765625,-0.1815185966670513,-1.4920152120396497,-0.1500087751597165
2024-12-04 21:49:00.239975400,0.413975341796875,-0.0560018732070922,-1.0502182241149247,0.0232867675632238
2024-12-04 21:49:00.250049500,0.424049560546875,1.5298726490080357,-0.8341310028918087,-1.1218670176565646
2024-12-04 21:49:00.260124400,0.43412451171875,3.452241225546598,-0.9623068625584243,-1.875778090277314
2024-12-04 21:49:00.270198500,0.444198486328125,4.9964241394579405,-1.3523355231925844,-2.6692776614427567
2024-12-04 21:49:00.280273400,0.4542734375,5.6534822730451815,-1.5701666654735802,-4.099852900874614
2024-12-04 21:49:00.290347500,0.464347412109375,5.261121954593063,-1.8026308748714623,-6.0572547968715424
2024-12-04 21:49:00.300422400,0.47442236328125,3.498809499976039,-1.4815313735567033,-7.521030295115708
2024-12-04 21:49:00.310496500,0.48449658203125,1.4376497078627346,-3.629860184426605,-5.500204266956448
2024-12-04 21:49:00.320570400,0.4945703125,0.4446837954074144,-5.623306330490112,-3.307837430787086
2024-12-04 21:49:00.330645500,0.5046455078125,0.902004369547963,-3.932034912779927,-1.957392543646693
2024-12-04 21:49:00.340719400,0.51471923828125,2.844553564327955,-2.67402631727457,-0.1926478934466838
2024-12-04 21:49:00.350794500,0.52479443359375,4.836857554619014,-3.640467795419693,1.787088583955169
2024-12-04 21:49:00.360868400,0.534868408203125,5.6225698329091065,-3.7166707451343535,2.8101252250254154
2024-12-04 21:49:00.370943500,0.544943603515625,5.698224501091241,-1.268655077204108,1.3091010693609717
2024-12-04 21:49:00.381017300,0.555017333984375,0.7868956428557634,1.5305381271794438,-1.6744477086812255
2024-12-04 21:49:00.391092500,0.565092529296875,-6.545978809535503,4.678281149861216,-4.110360850885511
2024-12-04 21:49:00.401166300,0.575166259765625,-9.762162038975951,3.979559465020895,-4.129244999575615
2024-12-04 21:49:00.411240700,0.58524072265625,-9.673515202751757,3.510515135338902,-3.399291725647449
2024-12-04 21:49:00.421315300,0.5953154296875,-6.7951447090178725,5.0614311568975445,-2.934160185495019
2024-12-04 21:49:00.431389700,0.6053896484375,-4.711337616288661,4.931981770163774,-1.3766682926774023
2024-12-04 21:49:00.441464300,0.61546435546875,-4.77495580971837,5.361242955511808,-0.1963952632814645
2024-12-04 21:49:00.451538700,0.62553857421875,-6.026302609246969,6.133812551373243,0.2885135750085115
2024-12-04 21:49:00.461613300,0.63561328125,-4.162421292990446,2.901512884390354,1.3273100952684878
2024-12-04 21:49:00.471687700,0.645687744140625,1.2799205675840375,-0.4235458764411509,1.630795029437542
2024-12-04 21:49:00.481762600,0.655762451171875,8.060782484227419,-0.5776411537295207,-0.8379337561756371
2024-12-04 21:49:00.491836700,0.665836669921875,13.661533284038304,0.3558601047789678,-3.896234700602293
2024-12-04 21:49:00.501910500,0.67591064453125,16.504115840554235,0.2427774405542761,-4.551504197207093
2024-12-04 21:49:00.511985700,0.685985595703125,15.025040481847524,-0.4092457676056772,-3.872995279312133
2024-12-04 21:49:00.522059500,0.6960595703125,12.56775371222496,-0.1517224472098052,-16.316441059345006
2024-12-04 21:49:00.532134700,0.706134765625,6.701136053499579,-4.03964071649611,-7.170396071758866
2024-12-04 21:49:00.542208500,0.71620849609375,-0.1153127248317003,-0.7467481952540576,5.860162198975682
2024-12-04 21:49:00.552283600,0.72628369140625,-5.320537435635924,3.629745325875282,5.729627355092764
2024-12-04 21:49:00.562357500,0.736357421875,-6.616039018711447,4.649014138844609,5.388091214948893
2024-12-04 21:49:00.572432600,0.7464326171875,-6.151528240805864,7.492559987434745,9.008374300473928
2024-12-04 21:49:00.582506500,0.756506591796875,-11.230145510303974,8.476139647385477,14.861592963922025
2024-12-04 21:49:00.592581600,0.76658154296875,-10.17795233285427,7.415017313548922,15.768091722279786
2024-12-04 21:49:00.602655700,0.77665576171875,-2.225603335338831,-1.6715676232002674,10.807718554890156
2024-12-04 21:49:00.612729600,0.7867294921875,7.681640543788671,-7.393774619033932,1.2206547241449357
2024-12-04 21:49:00.622804700,0.7968046875,17.470019558560846,-5.632750450661778,-5.364698064401746
2024-12-04 21:49:00.632878600,0.806878662109375,19.721913519454,-6.847377585080266,-2.46613526198864
2024-12-04 21:49:00.642953700,0.81695361328125,17.81121901409626,-13.30271750779152,3.6634921126544473
2024-12-04 21:49:00.653027600,0.827027587890625,20.796178243458268,-12.085803723740575,3.2126676225349304
2024-12-04 21:49:00.663102700,0.837102783203125,19.88724670499564,-0.8967537555433809,-4.325690824000537
2024-12-04 21:49:00.673176600,0.847176513671875,12.849023307454583,-0.344481545946002,-1.5322148282200097
2024-12-04 21:49:00.683251700,0.857251708984375,7.043573526397347,0.5771285645648837,3.0121663852393628
2024-12-04 21:49:00.693325600,0.86732568359375,2.7437469192326067,1.301279581955075,3.2408798638015983
2024-12-04 21:49:00.703400700,0.877400634765625,-1.644293977957964,0.5775064579665661,2.9710861868321894
2024-12-04 21:49:00.713474600,0.887474609375,-5.49887623322308,-0.5214250897824764,1.089538134851307
2024-12-04 21:49:00.723548700,0.897548583984375,-8.732188876640796,-0.253224819484353,-1.8593916036218403
2024-12-04 21:49:00.733623600,0.90762353515625,-9.61768459445834,1.6885457921385765,-3.451573993809521
2024-12-04 21:49:00.743697700,0.91769775390625,-12.66363517587781,6.107853349730372,-3.1047616668283937
2024-12-04 21:49:00.753772500,0.9277724609375,-15.589907238471508,8.630788941827415,-1.2481218461327257
2024-12-04 21:49:00.763846700,0.9378466796875,-16.145415799641608,9.514915709379316,-1.113097874137014
2024-12-04 21:49:00.773921500,0.947921630859375,-11.187786378002166,9.879404270565509,-1.8908496949419376
2024-12-04 21:49:00.783995600,0.95799560546875,-2.8784494041889905,12.982640335261822,-2.502847328314185
2024-12-04 21:49:00.794070500,0.968070556640625,4.992785490694642,15.764854640054702,-0.1884216540537774
2024-12-04 21:49:00.804144600,0.97814453125,9.869468567484615,14.067358648741244,4.692324872782826
2024-12-04 21:49:00.814219500,0.988219482421875,11.339863776129484,10.890387485748528,7.1492714506655926
2024-12-04 21:49:00.824293600,0.998293701171875,9.381431952562927,8.530591953063011,5.326092731675505
2024-12-04 21:49:00.834368500,1.008368408203125,5.882305057200789,7.612459455534815,2.8402354088678954
2024-12-04 21:49:00.844442600,1.018442626953125,4.860076809903979,8.078294175520538,-1.2228110253959894
2024-12-04 21:49:00.854515200,1.02851513671875,4.121768380084633,8.44325736848116,-4.988077166873216
2024-12-04 21:49:00.864590300,1.03859033203125,1.0852549045741555,7.740833321991563,-8.385353461045026
2024-12-04 21:49:00.874664200,1.048664306640625,-1.7408049716860057,5.637854495802522,-8.4239342438519
2024-12-04 21:49:00.884739300,1.0587392578125,-5.207826417735219,3.825401753488183,-5.5442146735966205
2024-12-04 21:49:00.894813200,1.068813232421875,-7.108906707051396,3.226976426133513,-3.169616708576679
2024-12-04 21:49:00.904888300,1.078888427734375,-5.6869350453138345,2.079627176696062,-0.309826850541681
2024-12-04 21:49:00.914962200,1.088962158203125,-1.0040694902718066,1.3712936139017342,3.101550303566456
2024-12-04 21:49:00.925037300,1.099037353515625,1.6768202830314636,1.0784715280443429,1.3536369611799717
2024-12-04 21:49:00.935111400,1.109111328125,5.860343400761485,-1.7923662320971487,-4.381166335245966
2024-12-04 21:49:00.945186300,1.119186279296875,11.643114901542663,-9.391961529883742,-8.981750497442484
2024-12-04 21:49:00.955260400,1.129260498046875,14.320545474302769,-13.79662447605133,-11.080961495530604
2024-12-04 21:49:00.965335300,1.139335205078125,9.537091300830244,-14.369529577702282,-10.632330423802136
2024-12-04 21:49:00.975409400,1.149409423828125,0.5824053359240293,-9.533975799158217,-12.198290285235643
2024-12-04 21:49:00.985484300,1.159484375,-11.366030483043192,-0.809862092423439,-12.02679039375782
2024-12-04 21:49:00.995558400,1.169558349609375,-11.26012446898222,5.086807590216398,-4.819257308259606
2024-12-04 21:49:01.005632500,1.179632568359375,0.7135141803026199,1.5022311933666468,5.987064239314198
2024-12-04 21:49:01.015707400,1.189707275390625,1.7134563615113496,1.1920046759828924,13.406938929766415
2024-12-04 21:49:01.025781500,1.199781494140625,-2.953550530141592,2.097070478928089,11.210640014845133
2024-12-04 21:49:01.035856400,1.2098564453125,-3.899997852528095,2.393277531048655,6.610425855004787
2024-12-04 21:49:01.045930500,1.219930419921875,-4.601390802404284,6.007758652296662,6.303706761220097
2024-12-04 21:49:01.056005400,1.23000537109375,-1.0835188745617863,-0.9931924146875738,1.325336457107961
2024-12-04 21:49:01.066079500,1.24007958984375,-0.6038531976222992,-4.020477750864624,-3.1980817555606365
2024-12-04 21:49:01.076154400,1.250154296875,-3.1325708802521226,-3.0302123295396566,-2.3457512252420187
2024-12-04 21:49:01.086228500,1.260228515625,-3.769024032706022,-0.7991510210558772,0.8930454025447369
2024-12-04 21:49:01.096303400,1.270303466796875,-4.550387175875902,0.3191799314290285,3.546594164457917
2024-12-04 21:49:01.106377500,1.28037744140625,-5.611095083692669,1.0331994309052823,4.514187150725722
2024-12-04 21:49:01.116452400,1.290452392578125,-3.458701945993304,0.5326359273657202,2.3296803804069754
2024-12-04 21:49:01.126526500,1.3005263671875,0.5507470458567142,0.6559680002629756,-1.4901333438158035
2024-12-04 21:49:01.136601300,1.310601318359375,5.341922168970108,1.0195061288565397,-3.452034304797649
2024-12-04 21:49:01.146675500,1.320675537109375,6.26696079262495,2.357989652307332,-3.2275597789794204
2024-12-04 21:49:01.156749600,1.33074951171875,3.2026115079447623,6.303372999221086,-3.077757340046764
2024-12-04 21:49:01.166824400,1.340824462890625,3.658111296398937,4.979065008378028,-4.141009087127447
2024-12-04 21:49:01.176898600,1.350898681640625,3.693694650955498,2.95061652251631,-4.3769893418222665
2024-12-04 21:49:01.186973400,1.360973388671875,7.735275687864422,4.1653614380955695,-8.633866449576615
2024-12-04 21:49:01.197047600,1.371047607421875,14.960395867979525,2.8002199170827864,-11.183559115695951
2024-12-04 21:49:01.207122400,1.381122314453125,15.87771178842783,-3.242743904107809,-8.29830529218912
2024-12-04 21:49:01.217196500,1.391196533203125,10.130141949409246,-3.167785109235346,-6.62230041719377
2024-12-04 21:49:01.227271400,1.401271484375,5.001839150243997,-1.5921327058270571,-5.48541118697226
2024-12-04 21:49:01.237345500,1.411345458984375,0.9781003517568112,-1.4492800860323012,-5.100404153892398
2024-12-04 21:49:01.247420400,1.42142041015625,-2.7893618384599685,-1.050644048311561,-5.488850513771176
2024-12-04 21:49:01.257494500,1.43149462890625,-4.478359466019272,-0.4386507988534867,-5.075025967007875
2024-12-04 21:49:01.267569400,1.4415693359375,-3.4737907940536736,0.0660886751964688,-3.9238334861457353
2024-12-04 21:49:01.277643500,1.4516435546875,-0.902314166149497,0.3157787446834146,-2.151242798620462
2024-12-04 21:49:01.287718400,1.461718505859375,2.090450184005499,0.192566498773545,-0.1976198366403579
2024-12-04 21:49:01.297792500,1.47179248046875,4.781653846052289,-0.0082379683854524,1.4144634780645369
2024-12-04 21:49:01.307867600,1.48186767578125,6.080600601145624,-0.5825611110076307,3.118130266967416
2024-12-04 21:49:01.317941500,1.49194140625,6.375360377067327,0.2312408050827681,4.042439991825819
2024-12-04 21:49:01.328015400,1.502015380859375,5.450883478948474,3.2155513612777,3.5372593498796223
2024-12-04 21:49:01.338090500,1.512090576171875,3.91406963250041,2.3600508226208388,5.423944618618488
2024-12-04 21:49:01.348164400,1.522164306640625,2.450410454112291,2.656044670382142,6.546798309224844
2024-12-04 21:49:01.358239500,1.532239501953125,1.583647493815422,4.350549663186073,6.764080877712368
2024-12-04 21:49:01.368313300,1.542313232421875,1.416971661493182,6.369633816114067,7.371523039737343
2024-12-04 21:49:01.378388500,1.552388427734375,0.8785282168924808,6.632872664612531,8.500499597138166
2024-12-04 21:49:01.388462300,1.56246240234375,0.5349333906531334,5.00244880657494,8.528329853349923
2024-12-04 21:49:01.398537500,1.572537353515625,0.0768581987529993,3.691408293583989,7.446306770303845
2024-12-04 21:49:01.408611300,1.582611328125,0.1237584816157817,2.828886039596796,6.462955658411979
2024-12-04 21:49:01.418686500,1.5926865234375,0.9983505281031132,1.3646363479696213,6.040993982422352
2024-12-04 21:49:01.428760300,1.60276025390625,2.3260049067646262,0.1974914610203355,5.467960285955667
2024-12-04 21:49:01.438835500,1.61283544921875,2.661180864226818,0.1227280425895005,4.41620374635756
2024-12-04 21:49:01.448909600,1.62290966796875,1.9710738629966973,1.254241059665382,2.8831156424343583
2024-12-04 21:49:01.458984400,1.632984375,0.5955407118290662,2.640314309547841,1.5113259155787526
2024-12-04 21:49:01.469058600,1.64305859375,-0.4295785807341337,3.0819793416559693,0.5492464320354163
2024-12-04 21:49:01.479133400,1.653133544921875,-0.4293237291902303,3.185867001631856,-0.0840171305969357
2024-12-04 21:49:01.489207600,1.66320751953125,-0.1159708964794874,2.096337926869839,1.3641731143720448
2024-12-04 21:49:01.499282400,1.673282470703125,2.029023947662115,0.8056477626640349,2.5296967567950484
2024-12-04 21:49:01.509356500,1.6833564453125,1.5944126334577795,0.5688882672250271,1.8575306320555507
2024-12-04 21:49:01.519430400,1.693430419921875,-2.595114108601212,0.6828992618083953,1.6875727093227206
2024-12-04 21:49:01.529505500,1.703505615234375,-7.248851768836379,0.9743206870876252,2.1962091908112167
2024-12-04 21:49:01.539579400,1.713579345703125,-7.022079487469792,1.1879150685817002,1.9976867062427104
2024-12-04 21:49:01.549654500,1.723654541015625,-3.77495868345201,1.6579124612048268,0.5483849929004907
2024-12-04 21:49:01.559728400,1.733728271484375,-0.7567074253410101,2.230287255371362,-1.366166041754931
2024-12-04 21:49:01.569803500,1.743803466796875,0.5419038141876459,2.068395150194317,-2.8441797625795004
2024-12-04 21:49:01.579877400,1.75387744140625,0.8810551050215959,1.6354551302030682,-3.078122081705928
2024-12-04 21:49:01.589952500,1.763952392578125,0.5139572381198406,1.2216808523222804,-2.6753970211058853
2024-12-04 21:49:01.600026400,1.7740263671875,0.0005289923101663,0.801728762589395,-1.4064106661207971
2024-12-04 21:49:01.610101500,1.7841015625,0.6999006654918194,0.2655024095162749,-0.0774633250392973
2024-12-04 21:49:01.620175400,1.79417529296875,1.8528560643732543,-0.041229543749988,0.3194352944295853
2024-12-04 21:49:01.630250500,1.80425048828125,1.0476824220269918,-0.0751423347458243,0.7880487584136426
2024-12-04 21:49:01.640324400,1.814324462890625,0.6308136852622032,0.1035778633743524,0.6979766386266797
2024-12-04 21:49:01.650399500,1.8243994140625,0.7904150491535663,0.4631099711969494,-0.1769886981524527
2024-12-04 21:49:01.660473300,1.834473388671875,0.583629324761033,0.6180214237064123,-0.8682637202486395
2024-12-04 21:49:01.670548500,1.844548583984375,0.4633294591665268,0.3002984130874276,-1.1573575793631374
2024-12-04 21:49:01.680622300,1.854622314453125,-0.1598959629237651,-0.1931312930494546,-1.1568353090547026
2024-12-04 21:49:01.690697500,1.864697509765625,-1.0879898824959993,-0.2117275647088885,-1.3184830840818582
2024-12-04 21:49:01.700771300,1.874771240234375,-1.6158716010719536,0.0549383356288075,-1.6138474017679691
2024-12-04 21:49:01.710846500,1.884846435546875,-1.8995055873453617,0.2239817738652229,-1.6175500556781888
2024-12-04 21:49:01.720920300,1.89492041015625,-1.540166664007306,0.235537187102437,-1.4206760689690707
2024-12-04 21:49:01.730995500,1.904995361328125,-1.1301572916179894,-0.0078428224548697,-1.0262919896043836
2024-12-04 21:49:01.741069300,1.9150693359375,-0.7955559191733598,-0.1151370760038495,-0.8076878901895135
2024-12-04 21:49:01.751143400,1.925143310546875,-0.1059223806738853,-0.1775771655648946,-0.7946893654718995
2024-12-04 21:49:01.761218300,1.93521826171875,0.8041133196383714,-0.2173363445013761,-0.7389278768919408
2024-12-04 21:49:01.771292400,1.94529248046875,1.1151853479355571,0.3875567175626754,-1.2407701681956649
2024-12-04 21:49:01.781367300,1.9553671875,1.041501687565446,-0.760251089297235,0.2709890607664361
2024-12-04 21:49:01.791441400,1.96544140625,3.25997619393766,-1.1390066607668996,0.9097499421734362
2024-12-04 21:49:01.801516300,1.975516357421875,1.8352514340996744,-0.8474559100195765,1.18468215107508
2024-12-04 21:49:01.811590400,1.98559033203125,1.0448761324346063,-0.4691816923260689,0.6277391001224517
2024-12-04 21:49:01.821665500,1.99566552734375,1.688524164828658,-0.1803033756583928,-0.1539429362708702
2024-12-04 21:49:01.831739400,2.005739501953125,0.6133218677133322,-0.2325052720606326,-0.7143800033517181
2024-12-04 21:49:01.841814500,2.015814453125,-0.6239402923613786,-0.1168590774908661,-1.337066496259719
2024-12-04 21:49:01.851888400,2.025888427734375,-1.2239794846534728,-0.0065419689893722,-1.424187584221363
2024-12-04 21:49:01.861963800,2.0359638671875,-1.099928742092848,0.0784790779531002,-1.3669300118647516
2024-12-04 21:49:01.872038000,2.046037841796875,-0.0923871917963028,0.2891942507490515,-1.0515215617984532
2024-12-04 21:49:01.882112800,2.05611279296875,0.639419016522169,0.3330126419484615,-0.0797832558868452
2024-12-04 21:49:01.892187000,2.066186767578125,1.0488520503282546,0.2782473247990012,0.8556544140443205
2024-12-04 21:49:01.902261800,2.07626171875,1.463019126918912,0.2408718261286616,1.1627880069140344
2024-12-04 21:49:01.912336000,2.0863359375,1.556388900011778,0.3460366664335131,1.095344336912036
2024-12-04 21:49:01.922410800,2.09641064453125,1.0348194333225489,0.4381535168558358,0.8985385931335389
2024-12-04 21:49:01.932484900,2.10648486328125,0.2772784797668456,0.2860907317757606,0.5205220034629107
2024-12-04 21:49:01.942558700,2.116558837890625,-0.3394529041290283,0.2070321003690362,0.0043302842892706
2024-12-04 21:49:01.952633900,2.1266337890625,-0.6659691697955131,0.3687552787199616,-0.5056191794939339
2024-12-04 21:49:01.962707700,2.136707763671875,-0.8240858480870723,0.5600286689430475,-0.7333097447492182
2024-12-04 21:49:01.972782800,2.146782958984375,-0.9164046508222816,0.6530418836832046,-0.5884161571787669
2024-12-04 21:49:01.982856700,2.156856689453125,-0.8326508473366498,0.4848115153953433,-0.1956811967279761
2024-12-04 21:49:01.992931800,2.166931884765625,-0.9071119218200444,0.2702098565548658,0.0052183191701769
2024-12-04 21:49:02.003005700,2.177005615234375,-0.9613964697152376,0.1907362146064639,-0.0119073684800416
2024-12-04 21:49:02.013080800,2.187080810546875,-0.6968722575813532,0.1038017352581024,-0.0490320341944694
2024-12-04 21:49:02.023154700,2.19715478515625,-0.3343693172544241,-0.1133469777166843,-0.0545030860166996
2024-12-04 21:49:02.033229800,2.207229736328125,-0.2215507473260164,-0.4310360860660672,-0.0541392942056059
2024-12-04 21:49:02.043303700,2.2173037109375,-0.0508387913554906,-0.6513508618563413,-0.1281167498905211
2024-12-04 21:49:02.053378800,2.22737890625,0.0082855977863073,-0.5553393420830368,-0.1696266449518501
2024-12-04 21:49:02.063452700,2.23745263671875,-0.016143325549364,-0.4033580978065729,-0.1707754496607929
2024-12-04 21:49:02.073527800,2.24752783203125,-0.0703624069929122,-0.3653402095794678,-0.1505238850750029
2024-12-04 21:49:02.083601700,2.2576015625,-0.3363064227968454,-0.3411030094236135,-0.031848186616227
2024-12-04 21:49:02.093676800,2.2676767578125,-0.6129968735426664,-0.2743973713725805,0.050794221561402
2024-12-04 21:49:02.103750700,2.277750732421875,-0.7937333799213171,-0.2453472179770469,0.0811610835786908
2024-12-04 21:49:02.113825800,2.28782568359375,-0.8451116849809884,-0.2252127769649028,0.1357060725083574
2024-12-04 21:49:02.123899600,2.297899658203125,-0.7761135520786047,-0.2174231460019946,0.0826207808677107
2024-12-04 21:49:02.133974800,2.307974853515625,-0.6137362937331199,-0.2832949635773897,0.0334011516792699
2024-12-04 21:49:02.144048600,2.318048583984375,-0.2880284218400716,-0.2437196167752146,-0.0341930327093228
2024-12-04 21:49:02.154122800,2.328122802734375,0.1076011275410652,-0.1529775618374347,-0.0558246169440448
2024-12-04 21:49:02.164197600,2.33819775390625,0.369808294904232,-0.2218096905231475,-0.1142926976015791
2024-12-04 21:49:02.174271700,2.348271728515625,0.5204343251794576,-0.3077671415328979,-0.3160729783896356
2024-12-04 21:49:02.184346600,2.3583466796875,0.5774988591820002,-0.2304857489317655,-0.5573226613873615
2024-12-04 21:49:02.194420700,2.368420654296875,0.3222445796966552,-0.0769581519961357,-0.6215630418360233
2024-12-04 21:49:02.204495600,2.37849560546875,0.0045949265748262,-0.0359331909075379,-0.3233790636193007
2024-12-04 21:49:02.214569700,2.38856982421875,-0.4153425501108169,-0.0535217468291521,0.006613280659914
2024-12-04 21:49:02.224644900,2.398644775390625,-0.7835124301582574,0.0149374568909406,0.143682604345493
2024-12-04 21:49:02.234718700,2.40871875,-0.8965314910948275,0.2147480815738439,0.1447769023882225
2024-12-04 21:49:02.244793900,2.4187939453125,-0.9194821585714816,0.2809849330693483,0.0884590585671365
2024-12-04 21:49:02.254867700,2.42886767578125,-0.9053718001544476,0.2183387995421886,-0.0518732489697635
2024-12-04 21:49:02.264942800,2.43894287109375,-0.6811036105632782,0.2247419445827603,-0.223356262378022
2024-12-04 21:49:02.275016700,2.4490166015625,-0.3501134143531322,0.2700634338214993,-0.2977676525007933
2024-12-04 21:49:02.285091800,2.459091796875,-0.0206844761103391,0.2400865209698676,-0.229892240018025
2024-12-04 21:49:02.295165700,2.469165771484375,0.3372358126014471,0.1248138358876109,-0.0698426209025084
2024-12-04 21:49:02.305240800,2.47924072265625,0.482480734360218,-0.0725341980740428,0.0568626547548919
2024-12-04 21:49:02.315314700,2.489314697265625,0.4584440252125263,-0.1777618744820356,-0.0071607584748417
2024-12-04 21:49:02.325389800,2.499389892578125,0.4878115739941597,-0.0971168506667017,-0.1573500778332352
2024-12-04 21:49:02.335463700,2.509463623046875,0.5244236870765686,0.0096633158802986,-0.2160116717688739
2024-12-04 21:49:02.345537800,2.519537841796875,0.6269307063490152,0.0354123819038271,-0.2266667751654982
2024-12-04 21:49:02.355612700,2.52961279296875,0.5683072524666786,-0.0545724249258637,-0.1654714980337768
2024-12-04 21:49:02.365686800,2.539686767578125,0.2637000362694263,-0.0937608182370662,-0.2381879938721656
2024-12-04 21:49:02.375761700,2.54976171875,-0.0298573781251907,0.0057443888708949,-0.3267618379253894
2024-12-04 21:49:02.385835800,2.559835693359375,-0.191519181677699,0.1131897413283586,-0.3407170057807117
2024-12-04 21:49:02.395910700,2.56991064453125,-0.3303624197006225,0.1770195316821336,-0.239866229282692
2024-12-04 21:49:02.405984800,2.57998486328125,-0.1758691926032304,0.2424552959278225,-0.19790961336717
2024-12-04 21:49:02.416059600,2.5900595703125,0.1461029998928308,0.2540095401212573,-0.1541862069748342
2024-12-04 21:49:02.426133800,2.6001337890625,0.335952787053585,0.1854711336851119,-0.0645516018223017
2024-12-04 21:49:02.436208600,2.610208740234375,0.3926689460098743,0.1330704998403787,0.1030496747817844
2024-12-04 21:49:02.446282800,2.62028271484375,0.3795376617580652,0.2103495543539524,0.2308085511453449
2024-12-04 21:49:02.456357600,2.630357666015625,0.3059323273211717,0.1925441408112645,0.235289057560265
2024-12-04 21:49:02.466431700,2.640431640625,0.3599836509823799,0.186601306758821,0.2428181378908455
2024-12-04 21:49:02.476506600,2.650506591796875,0.4241261605471372,0.221853529664874,0.2677848213650286
2024-12-04 21:49:02.486580700,2.660580810546875,0.4467196851491928,0.1830696255013346,0.2824445572931319
2024-12-04 21:49:02.496655600,2.670655517578125,0.4186345773935317,0.1286898005381226,0.2333024868529289
2024-12-04 21:49:02.506729700,2.680729736328125,0.2916314147680998,0.0903670841455459,0.1982454942580312
2024-12-04 21:49:02.516804600,2.6908046875,0.0164911160737276,0.0739481565251946,0.1138591832888312
2024-12-04 21:49:02.526878700,2.700878662109375,-0.2498836923629045,0.0896083747327327,0.032658114759624
2024-12-04 21:49:02.536952800,2.710952880859375,-0.3661819211006164,0.1522837343543767,-0.0508062407927587
2024-12-04 21:49:02.547027700,2.72102783203125,-0.3330003669887781,0.163624335797131,-0.2018124660246074
2024-12-04 21:49:02.557101800,2.731101806640625,-0.4139525570571422,0.0982695278331637,-0.3048413537466898
2024-12-04 21:49:02.567176700,2.7411767578125,-0.5852344218701124,0.0180111652478575,-0.3673560063812881
2024-12-04 21:49:02.577250800,2.751250732421875,-0.6224947697281837,-0.0718640437275171,-0.4501351926811039
2024-12-04 21:49:02.587325700,2.76132568359375,-0.4297480920821428,-0.4324807319164276,-0.3978665511855855
2024-12-04 21:49:02.597399800,2.77139990234375,-0.3680447923630476,-0.3531698793143034,-0.3841843185201287
2024-12-04 21:49:02.607474700,2.781474609375,0.0559428364962339,-0.0007388356685638,-0.3331613297041505
2024-12-04 21:49:02.617548800,2.791548828125,0.5606997000724077,0.0935810777559876,-0.0823486859280616
2024-12-04 21:49:02.627623700,2.801623779296875,0.6339736105978488,0.035925592122972,0.330545228921622
2024-12-04 21:49:02.637697800,2.81169775390625,0.528399020448327,-0.126674953584373,0.7143219895541667
2024-12-04 21:49:02.647772700,2.821772705078125,0.4665624497383833,-0.2821747273758053,0.8843946247078478
2024-12-04 21:49:02.657846800,2.8318466796875,0.4300099578887223,-0.3712508949279784,0.7184601853374392
2024-12-04 21:49:02.667921700,2.841921630859375,0.2519908937752246,-0.3240878694757819,0.2569165136091411
2024-12-04 21:49:02.677995800,2.851995849609375,0.375013462331891,-0.1878375705555081,-0.206580118817836
2024-12-04 21:49:02.688070700,2.862070556640625,0.5464841277152299,-0.1183794189259409,-0.3666182666912674
2024-12-04 21:49:02.698144800,2.872144775390625,0.8995844489246606,-0.314531228840351,-0.5245168452527373
2024-12-04 21:49:02.708219600,2.8822197265625,1.1932874092698096,-0.4554869289726018,-0.7651098544400184
2024-12-04 21:49:02.718293800,2.892293701171875,0.9381997185230254,-0.6012655192166566,-0.970685399325192
2024-12-04 21:49:02.728368600,2.90236865234375,0.0581388852357864,-0.5054425077527761,-1.074196261877939
2024-12-04 21:49:02.738443000,2.912443115234375,-0.4125356759965419,-0.5939417521998286,-0.984596801104024
2024-12-04 21:49:02.748516900,2.922516845703125,-0.8095137173771858,-0.6137748721778392,-0.8327245701599866
2024-12-04 21:49:02.758592000,2.932592041015625,-1.0195961452275517,-0.5503323275759816,-0.5269002332579344
2024-12-04 21:49:02.768665900,2.942665771484375,-1.0177864654570816,-0.6330974122852087,-0.1375356625556945
2024-12-04 21:49:02.778741000,2.952740966796875,-1.2504308537274598,-0.3377098598539829,0.054276218458265
2024-12-04 21:49:02.788814800,2.96281494140625,-1.156671204534173,-0.211976571033895,0.3517641772348434
2024-12-04 21:49:02.798890000,2.972889892578125,-1.0009639254719018,-0.0107405897229909,0.3325562034178525
2024-12-04 21:49:02.808963800,2.9829638671875,-0.6567921761274338,0.0994035002991557,0.1803351590361446
2024-12-04 21:49:02.819039000,2.9930390625,-0.5736679027169943,0.0034895956814289,0.0539678831614553
2024-12-04 21:49:02.829112800,3.00311279296875,-0.4918886141747235,-0.0150061382129788,-0.0291585091408342
2024-12-04 21:49:02.839188000,3.01318798828125,-0.5487959117889404,0.0656055678546428,-0.0514187832005322
2024-12-04 21:49:02.849261800,3.02326171875,-0.7256102762877941,0.0416746571689844,0.0492244880266487
2024-12-04 21:49:02.859337200,3.033337158203125,-0.8820616517156362,0.0606000146523117,0.2453162383168935
2024-12-04 21:49:02.869411300,3.043411376953125,-0.6983335623055696,0.1469403274998068,0.2972496930412948
2024-12-04 21:49:02.879486200,3.053486328125,-0.3728308575958013,0.1308072310835123,0.1877314067672938
2024-12-04 21:49:02.889560300,3.063560302734375,-0.3938175315231084,0.0202384859085083,0.0098598613657057
2024-12-04 21:49:02.899635200,3.07363525390625,-0.5291764345616102,-0.0508054736077785,-0.1731071805439889
2024-12-04 21:49:02.909709300,3.083709228515625,-0.0821633194237947,-0.0421086646720767,-0.1820692893523722
2024-12-04 21:49:02.919784200,3.0937841796875,0.4693441894114017,0.0011456629037857,-0.2475812606394291
2024-12-04 21:49:02.929858300,3.1038583984375,0.9477817858606576,-0.1244774435400962,-0.3973678444158285
2024-12-04 21:49:02.939932400,3.113932373046875,1.1230401530891656,-0.1659551168322563,-0.4314676824163645
2024-12-04 21:49:02.950007300,3.12400732421875,0.9256704918175936,-0.0577262127816677,-0.3905005159296095
2024-12-04 21:49:02.960081400,3.134081298828125,0.6567834082990884,0.0864595553129911,-0.2148327641826123
2024-12-04 21:49:02.970156300,3.14415625,0.4782119709998368,0.2504392804190516,0.0535980634683743
2024-12-04 21:49:02.980230400,3.15423046875,-0.0083773677229881,0.230469966840744,0.0693218118987977
2024-12-04 21:49:02.990305300,3.16430517578125,-0.224757434412837,0.1502139423429966,-0.0970333736343309
2024-12-04 21:49:03.000379400,3.17437939453125,0.0045025721162557,0.1839350101590156,-0.2538693279329687
2024-12-04 21:49:03.010454300,3.184454345703125,0.2790618560522794,0.2007555043175816,-0.3662408116810023
2024-12-04 21:49:03.020528400,3.1945283203125,0.2929892591178417,0.0965460650414228,-0.4984683578912168
2024-12-04 21:49:03.030603300,3.204603271484375,0.4162894755721092,-0.0073810501620173,-0.4918931442193687
2024-12-04 21:49:03.040677400,3.214677490234375,0.2673147196352481,-0.0718172819763422,-0.5015658124499023
2024-12-04 21:49:03.050752500,3.22475244140625,0.2498182259112596,0.001346446172893,-0.5180508641090243
2024-12-04 21:49:03.060826400,3.234826416015625,0.3743950381726026,0.1542801688686013,-0.35258857229501
2024-12-04 21:49:03.070901500,3.244901611328125,0.3690314653128385,0.1674324959084391,-0.0999593075510114
2024-12-04 21:49:03.080975400,3.254975341796875,0.4282826957046985,0.0749886054888367,0.1221408903513103
2024-12-04 21:49:03.091050500,3.265050537109375,0.5601853208094835,0.0818248812496662,0.2058713129613548
2024-12-04 21:49:03.101124400,3.275124267578125,0.4174105885565281,0.0945744727075099,0.2032501706775277
2024-12-04 21:49:03.111199500,3.285199462890625,0.1454120950192213,0.066588149151206,0.1882877985410392
2024-12-04 21:49:03.121273300,3.2952734375,-0.0550379966109991,0.04575783482939,0.0795760063443332
2024-12-04 21:49:03.131348500,3.305348388671875,-0.1010714335113763,0.0541264347240328,0.0793479149431921
2024-12-04 21:49:03.141422300,3.31542236328125,-0.1249731181025505,-0.043616731147468,0.0866551692166365
2024-12-04 21:49:03.151496200,3.32549609375,-0.2793780823945999,-0.0808545749127864,0.0233289992697536
2024-12-04 21:49:03.161571300,3.3355712890625,-0.4381915107786655,-0.0704030312642455,-0.0926852979600429
2024-12-04 21:49:03.171645400,3.3456455078125,-0.5289993244290352,-0.0441255574524402,-0.2242178476434201
2024-12-04 21:49:03.181720300,3.35572021484375,-0.5930068094372749,-0.0046422728478908,-0.1913563192661851
2024-12-04 21:49:03.191794400,3.36579443359375,-0.5231102663904428,-0.0286485868573188,-0.0477950397454202
2024-12-04 21:49:03.201869300,3.375869384765625,-0.422476055252552,0.0047775896653532,0.0894752133397385
2024-12-04 21:49:03.211943400,3.385943359375,-0.3512894723951816,0.101012396800518,0.2287503765065222
2024-12-04 21:49:03.222018300,3.396018310546875,-0.377879957678914,0.106931849977374,0.2458052639428526
2024-12-04 21:49:03.232092400,3.406092529296875,-0.372576006051898,0.8806079457759857,-0.0107009518323466
2024-12-04 21:49:03.242167300,3.416167236328125,-0.4846452189177274,0.5090747267752885,0.3571443359032273
2024-12-04 21:49:03.252241400,3.426241455078125,-0.1928372785389423,-0.983160557755828,1.2297351255707445
2024-12-04 21:49:03.262316300,3.43631640625,-1.1061065539449453,-0.4959878661870956,0.5681679170612245
2024-12-04 21:49:03.272390400,3.446390380859375,-1.3257687110453844,0.3674269527256488,-0.5759031144231558
2024-12-04 21:49:03.282465300,3.45646533203125,-1.0803484278321265,0.3048553457394242,-0.8257352227292954
2024-12-04 21:49:03.292539400,3.466539306640625,-1.2215905436903238,0.1991650202557444,-0.5878367863882332
2024-12-04 21:49:03.302614300,3.4766142578125,-1.4100158510059118,0.1671606932297349,-0.3447464074272662
2024-12-04 21:49:03.312688400,3.4866884765625,-0.8794201972961425,-0.1365782157003879,0.0345287309370934
2024-12-04 21:49:03.322763300,3.49676318359375,-0.0134416653752326,0.0309033800467848,0.3899241773463785
2024-12-04 21:49:03.332837400,3.50683740234375,0.4395324039936065,0.1926820879772305,0.6138561207205057
2024-12-04 21:49:03.342911200,3.5169111328125,0.2110615020155906,0.0829559311062097,0.704308618127182
2024-12-04 21:49:03.352986400,3.526986328125,-0.2792319519221782,-0.2876926140144467,0.5944769550550729
2024-12-04 21:49:03.363060200,3.537060302734375,-0.7108832472771406,-0.5826853219091892,0.351782078217715
2024-12-04 21:49:03.373135400,3.54713525390625,-0.9764999308228492,-0.5488935269445181,0.0453780417315661
2024-12-04 21:49:03.383209200,3.557209228515625,-1.1294073500335216,-0.2082964212164282,-0.280576936790347
2024-12-04 21:49:03.393284400,3.567284423828125,-1.0287649555891751,0.3176677733004093,-0.6340932914547622
2024-12-04 21:49:03.403358200,3.577358154296875,-1.0845412033468484,0.6902011092543602,-0.9401305404551328
2024-12-04 21:49:03.413433300,3.587433349609375,-1.2254109787613152,-0.0485018728405237,-0.3081938425123691
2024-12-04 21:49:03.423507200,3.597507080078125,-1.2266285378575323,-0.273517958189547,0.0240248725794255
2024-12-04 21:49:03.433582300,3.607582275390625,-0.8146236077368258,0.3897974822267889,-0.0229524210423231
2024-12-04 21:49:03.443656200,3.61765625,-1.1303723956733942,1.036046052508056,-0.2783896558791399
2024-12-04 21:49:03.453731300,3.6277314453125,-1.8065356272250408,0.0602332271665334,-0.0617095833294093
2024-12-04 21:49:03.463805200,3.63780517578125,-2.662449276727438,0.9406789681181312,-0.8384238777801394
2024-12-04 21:49:03.473880300,3.64788037109375,-3.5236966884732244,2.248939787262678,-1.676509171255678
2024-12-04 21:49:03.483954200,3.6579541015625,-3.900770590466261,2.8017209692955016,-1.6852042266257106
2024-12-04 21:49:03.494029300,3.668029296875,-2.681944250792265,2.969569352528453,-1.5260957608178256
2024-12-04 21:49:03.504103200,3.678103271484375,-1.4839549474418163,3.096933749681711,-1.8896172305375336
2024-12-04 21:49:03.514178300,3.68817822265625,-0.6170967100769281,3.104289373141527,-2.600083129185438
2024-12-04 21:49:03.524252200,3.698252197265625,-0.407119496166706,3.0475714606195687,-2.2472151554271576
2024-12-04 21:49:03.534326300,3.708326171875,-0.838458072310686,3.134735949331522,-0.8632491069570183
2024-12-04 21:49:03.544401200,3.718401123046875,-0.6625701750069857,3.1644685320332644,0.4730912669852375
2024-12-04 21:49:03.554475300,3.728475341796875,0.7810626989185809,3.307883900277316,2.687522343185544
2024-12-04 21:49:03.564550400,3.73855029296875,0.902834390631318,3.236063695691526,6.140129479435086
2024-12-04 21:49:03.574624300,3.748624267578125,1.2517208935379982,3.429292896157503,9.016867403531077
2024-12-04 21:49:03.584699400,3.758699462890625,1.3606219977617262,4.696971529544889,10.003235232895612
2024-12-04 21:49:03.594773200,3.768773193359375,2.283835744076967,6.012549393704533,11.807386595332622
2024-12-04 21:49:03.604848400,3.778848388671875,2.048158856242895,6.168796186470985,15.378787284266949
2024-12-04 21:49:03.614922200,3.788922119140625,0.7130591300114989,6.503916614353656,15.04548939563632
2024-12-04 21:49:03.624997400,3.798997314453125,-0.010895195762813,8.75189427858591,12.528137156629562
2024-12-04 21:49:03.635071200,3.8090712890625,1.0313245769441126,11.33997951146364,9.59170551907122
2024-12-04 21:49:03.645146400,3.819146484375,1.2239262931615114,11.791897934299708,6.936997650250792
2024-12-04 21:49:03.655220200,3.82922021484375,1.3162095861919223,12.979403253036736,4.111813972303271
2024-12-04 21:49:03.665295400,3.83929541015625,0.4934503835987299,12.816046920526029,1.0420809487581253
2024-12-04 21:49:03.675369200,3.849369140625,-0.0144820778062567,9.821208102184531,-0.9063216482251882
2024-12-04 21:49:03.685444400,3.8594443359375,-0.5192728801846503,6.181002172571421,-1.6365210058689117
2024-12-04 21:49:03.695518200,3.869518310546875,-0.6704144587665796,2.3437078828461466,-2.965668837958574
2024-12-04 21:49:03.705592300,3.87959228515625,-0.758837423107028,-0.9505722933620214,-4.785512859568
2024-12-04 21:49:03.715667200,3.889667236328125,-1.1152964070945977,-3.567372456331551,-8.567581667286158
2024-12-04 21:49:03.725741300,3.8997412109375,-0.7274813308566809,-5.455942515903711,-11.57777236853838
2024-12-04 21:49:03.735816200,3.909816162109375,-0.4898422030389309,-7.427184721204638,-11.968607084858418
2024-12-04 21:49:03.745890300,3.919890380859375,0.1494961494624614,-8.735392056596279,-10.085292753857374
2024-12-04 21:49:03.755965200,3.929965087890625,1.0756353547703474,-8.36600461745262,-7.92983847502172
2024-12-04 21:49:03.766039300,3.940039306640625,2.1069773943059147,-7.389136437839269,-6.518261950570345
2024-12-04 21:49:03.776114200,3.9501142578125,2.999886164858937,-6.758377113112807,-5.30381543341577
2024-12-04 21:49:03.786188300,3.960188232421875,3.7870448425650594,-5.586560361894965,-4.309947603684663
2024-12-04 21:49:03.796263200,3.97026318359375,4.713014025068283,-4.641340827737748,-3.173398565202952
2024-12-04 21:49:03.806337300,3.980337158203125,6.384179058817028,-3.836926771587133,-2.6148323700279
2024-12-04 21:49:03.816412200,3.990412109375,7.566442969769239,-3.206700530824065,-1.4559388132691382
2024-12-04 21:49:03.826486300,4.000486328125,8.23400320814848,-3.1004391274541616,0.06943418623209
2024-12-04 21:49:03.836561200,4.01056103515625,9.190985368552804,-3.5515906575709577,1.1116881534695624
2024-12-04 21:49:03.846635300,4.02063525390625,9.928829103469848,-4.196511194118857,1.3873708884775635
2024-12-04 21:49:03.856709000,4.030709228515625,11.319549302375316,-3.105926326693594,-1.926435095325112
2024-12-04 21:49:03.866783200,4.040783203125,13.212743222355842,0.5909405245572328,-9.056398618930578
2024-12-04 21:49:03.876857000,4.050857177734375,12.236771699321269,0.3502230122074484,-10.655945108145474
2024-12-04 21:49:03.886932200,4.06093212890625,13.18475280714631,-2.132488706050813,-9.926593891763687
2024-12-04 21:49:03.897006300,4.07100634765625,14.848085832095146,-7.319243986445665,-3.9216619873255487
2024-12-04 21:49:03.907081200,4.081081298828125,15.247489639317989,-6.155278533250093,-3.997990609246492
2024-12-04 21:49:03.917155300,4.0911552734375,16.619915472120045,-6.494239854469895,-2.472715224900841
2024-12-04 21:49:03.927230200,4.101230224609375,16.92395687112808,-1.0189408961892128,-3.3738398890048265
2024-12-04 21:49:03.937304300,4.11130419921875,12.790384071481228,10.058308885341882,-10.550727660870551
2024-12-04 21:49:03.947379200,4.121379150390625,-3.171823278710246,16.528388696545363,-8.54282658073604
2024-12-04 21:49:03.957453300,4.131453369140625,-22.225558720147607,15.01023688046932,1.1009580851405858
2024-12-04 21:49:03.967528200,4.141528076171875,-27.964111724495886,16.327261728566885,5.3211272182226175
2024-12-04 21:49:03.977602300,4.151602294921875,-20.386451779663563,12.634572747522592,10.318777684605122
2024-12-04 21:49:03.987677200,4.16167724609375,-8.308901505005359,5.621925105264783,10.83283195335865
2024-12-04 21:49:03.997751300,4.171751220703125,-0.8287059091031551,1.0979532042361797,5.316709986302256
2024-12-04 21:49:04.007825200,4.1818251953125,4.949500475719571,-0.5183090766537934,1.1702969943046568
2024-12-04 21:49:04.017900300,4.191900390625,7.772338467323779,0.0593515124285593,-1.965145641991496
2024-12-04 21:49:04.027974100,4.20197412109375,8.661743467539548,-0.7982946964874863,-4.762043136653304
2024-12-04 21:49:04.038049300,4.21204931640625,8.952642476379872,-0.2823504858015105,-5.751170493859052
2024-12-04 21:49:04.048123100,4.222123046875,8.25848883010745,-0.3597631400994956,-2.672831554532051
2024-12-04 21:49:04.058198300,4.2321982421875,7.719477230229973,1.1688866160500797,1.1510288147330283
2024-12-04 21:49:04.068272000,4.242272216796875,7.354214177539944,1.0738277938917278,4.034964541378617
2024-12-04 21:49:04.078347300,4.25234716796875,6.138603877303004,0.5082886178988963,3.6637218297570944
2024-12-04 21:49:04.088421000,4.262421142578125,3.554538985982537,-0.079752678085491,2.2531647114813325
2024-12-04 21:49:04.098496300,4.272496337890625,1.6250614542216062,-0.8363989478237926,0.9838456174105406
2024-12-04 21:49:04.108570000,4.282570068359375,4.201652064138651,-3.4322274883046746,0.0854272896558046
2024-12-04 21:49:04.118645200,4.292645263671875,0.8306617193460464,-0.8121415816627442,-1.3743664454758169
2024-12-04 21:49:04.128719000,4.302718994140625,-1.3276964642375706,-1.704000989293307,2.8050129965782165
2024-12-04 21:49:04.138793200,4.312793212890625,5.489344434767961,-5.0747079870998855,4.306294926396012
2024-12-04 21:49:04.148868000,4.3228681640625,8.074725669384001,-4.79042605831176,-5.638683932363986
2024-12-04 21:49:04.158942200,4.332942138671875,-4.779925999346375,2.589167182895541,-6.578992605865001
2024-12-04 21:49:04.169017000,4.34301708984375,-14.269656998586656,1.778318417522311,8.730756798011065
2024-12-04 21:49:04.179091200,4.35309130859375,-8.092431421944498,-0.3990761827036738,14.393624739038945
2024-12-04 21:49:04.189166000,4.363166015625,-3.661722180372476,0.0724304454386234,6.22962387239933
2024-12-04 21:49:04.199240200,4.373240234375,-2.3516893831193446,-1.9105317160114643,2.908019197544456
2024-12-04 21:49:04.209315000,4.383315185546875,-0.3322118469595909,-3.2007816621690988,3.465522147402167
2024-12-04 21:49:04.219389200,4.39338916015625,7.565379139930009,-4.02821769746691,-0.1569347750306129
2024-12-04 21:49:04.229464000,4.403464111328125,17.843767531001568,-0.8907382946461438,-5.386717588508128
2024-12-04 21:49:04.239538200,4.4135380859375,4.134425617083907,-3.047134530507028,-0.6016665012329816
2024-12-04 21:49:04.249613000,4.423613037109375,-3.520167345303297,-5.984043430188298,8.883534453362225
2024-12-04 21:49:04.259687200,4.433687255859375,-7.074203642460703,-2.8558155475765465,5.50512360318005
2024-12-04 21:49:04.269762300,4.44376220703125,-1.5616227090120314,-1.000646530085802,-1.336097797358036
2024-12-04 21:49:04.279836200,4.453836181640625,5.964855330115556,0.0564864418536424,-3.1076433597445488
2024-12-04 21:49:04.289910000,4.463909912109375,8.762362481108307,-1.222664018140733,-2.4287661930590865
2024-12-04 21:49:04.299985200,4.473985107421875,8.203404656267166,2.182035996291041,-3.411231169766188
2024-12-04 21:49:04.310059000,4.48405908203125,7.753933626583218,1.4413023851513862,-0.9061591511398552
2024-12-04 21:49:04.320134100,4.494134033203125,6.832278215625882,-0.5419686961174011,1.1981757658332586
2024-12-04 21:49:04.330208000,4.5042080078125,2.762991717928648,7.523709743458032,-8.320829258686304
2024-12-04 21:49:04.340283100,4.514283203125,-1.0226625470608472,13.297587743687629,-11.884068852996826
2024-12-04 21:49:04.350357000,4.52435693359375,-3.0189854176044464,11.369684913897514,-11.85966857123375
2024-12-04 21:49:04.360432000,4.53443212890625,-7.953425102314353,10.554510686540604,-10.555814170354603
2024-12-04 21:49:04.370506000,4.544506103515625,-12.22297113750577,9.32842341595292,-9.37385479530692
2024-12-04 21:49:04.380581000,4.5545810546875,-10.85892384147048,7.658546083927154,-8.266465800336002
2024-12-04 21:49:04.390655000,4.564655029296875,-6.438702676165104,6.014408757835627,-6.15439005997777
2024-12-04 21:49:04.400730000,4.574730224609375,-2.425339141219854,5.510231155452132,-4.083094073775411
2024-12-04 21:49:04.410804200,4.58480419921875,-0.3286410027354955,4.965644385790824,-2.6524311560600995
2024-12-04 21:49:04.420878000,4.594878173828125,1.592910996723175,4.5208311187848444,-2.958800121232867
2024-12-04 21:49:04.430953200,4.604953125,3.5116263114511965,4.073310930907726,-3.358406757551432
2024-12-04 21:49:04.441027000,4.615027099609375,3.186072168815136,2.878285738059878,-1.1101327407211066
2024-12-04 21:49:04.451102200,4.625102294921875,4.7678749115467065,0.7687813094943762,2.6182325338602066
2024-12-04 21:49:04.461176000,4.635176025390625,6.491461621928215,-0.8956538314774632,6.122137895670533
2024-12-04 21:49:04.471251200,4.645251220703125,0.9668325232893228,-0.5515870038121938,4.524234497487544
2024-12-04 21:49:04.481325000,4.655324951171875,7.925787153804301,-1.1843794418014586,2.8488778572678566
2024-12-04 21:49:04.491400200,4.665400146484375,6.263702083089948,-2.793204485362768,2.315289451482892
2024-12-04 21:49:04.501474000,4.67547412109375,4.961648594152927,-4.638078026549517,2.410915479069948
2024-12-04 21:49:04.511549200,4.685549072265625,2.43303086476624,-3.895387143862248,2.171479530963301
2024-12-04 21:49:04.521623000,4.695623046875,-0.8615361655592918,-2.8837147773712872,1.472785903173685
2024-12-04 21:49:04.531698200,4.7056982421875,0.6546294451355934,-2.5101123508811,1.0993301916778089
2024-12-04 21:49:04.541772000,4.71577197265625,3.587663256949186,-2.3369205607935783,0.410032753264904
2024-12-04 21:49:04.551846100,4.72584619140625,4.65278021337986,-2.014473444262147,-0.2795686365306377
2024-12-04 21:49:04.561921000,4.735921142578125,-0.9246838188678026,-0.8609671334996819,-0.5244365465581416
2024-12-04 21:49:04.571995100,4.7459951171875,-4.345881086853146,-0.0598924509048461,0.5442278732210397
2024-12-04 21:49:04.582070000,4.756070068359375,-3.8558354701966047,0.2282534598350524,2.087026054775715
2024-12-04 21:49:04.592144100,4.76614404296875,-3.663416124808788,-0.3796206638664007,2.746225292044878
2024-12-04 21:49:04.602219000,4.776218994140625,-8.07736010954082,-0.0818856715261936,1.4850848282545803
2024-12-04 21:49:04.612293000,4.786293212890625,-8.714684199610351,0.805576377928257,-1.0772378945961594
2024-12-04 21:49:04.622368000,4.796367919921875,-5.804172600728273,2.542835347570479,-2.211876423281431
2024-12-04 21:49:04.632442000,4.806442138671875,-4.902877256232499,2.8244460113227365,-2.2852301210448145
2024-12-04 21:49:04.642517000,4.81651708984375,-5.447694327518343,1.6733903085827826,-1.3276052788227797
2024-12-04 21:49:04.652591000,4.826591064453125,-3.5364456954091787,0.9362260803624988,-0.6347919412434101
2024-12-04 21:49:04.662666000,4.836666015625,-1.1163427012771368,1.03656101629287,-0.3263920547649264
2024-12-04 21:49:04.672740000,4.846739990234375,-0.096387075087428,1.4796569579869507,0.1350555361777544
2024-12-04 21:49:04.682814200,4.856814208984375,-0.6703975076317786,1.884862729486823,0.7126613628655671
2024-12-04 21:49:04.692889000,4.86688916015625,-3.158690825414657,2.4420304560408,1.2212158651590346
2024-12-04 21:49:04.702963200,4.876963134765625,-3.909735402688384,2.944831217113137,1.597758144493401
2024-12-04 21:49:04.713038000,4.8870380859375,-3.791269766783714,3.286400675004721,1.1789002797380088
2024-12-04 21:49:04.723112200,4.8971123046875,-2.969225653657317,2.994804039289057,1.0905071260139343
2024-12-04 21:49:04.733187000,4.90718701171875,-1.4667045374333858,3.070220807062089,0.6254413445740937
2024-12-04 21:49:04.743261200,4.91726123046875,-0.8027250801503658,2.37487064448148,0.7272384620115161
2024-12-04 21:49:04.753336000,4.927336181640625,0.345811333245039,2.5190134502172468,0.5752049030259251
2024-12-04 21:49:04.763410200,4.93741015625,1.1229904687285424,2.9898733048886057,0.1037923829078674
2024-12-04 21:49:04.773485000,4.947485107421875,2.004983731383085,3.0480259263888,-0.1003311365380883
2024-12-04 21:49:04.783559200,4.95755908203125,1.5050474198311568,3.206415868663788,-0.1645546023845672
2024-12-04 21:49:04.793634300,4.96763427734375,-0.5426373891592026,3.222029325120151,0.0162666596680879
2024-12-04 21:49:04.803708200,4.977708251953125,-2.025006528714299,3.284998114730417,-0.042906244790554
2024-12-04 21:49:04.813782300,4.9877822265625,-1.7920839080244302,3.3012726654440163,-0.1061494674280285
2024-12-04 21:49:04.823857200,4.997857177734375,-0.6006108547002077,3.0930174530208108,-0.2646951847866177
2024-12-04 21:49:04.833931300,5.00793115234375,-0.1901560766309499,2.3987277592785654,0.1038204399585723
2024-12-04 21:49:04.844006100,5.018006103515625,-0.4217477409780025,1.6793426411159336,0.6543079580962657
2024-12-04 21:49:04.854080300,5.028080322265625,-0.2984837648808956,1.414897047176212,0.8548211780905723
2024-12-04 21:49:04.864155600,5.03815576171875,0.2049719529688358,1.065173947314918,1.0328414112478497
2024-12-04 21:49:04.874229500,5.0482294921875,0.8751835826396942,0.4208037381261587,1.0324065269619225
2024-12-04 21:49:04.884304600,5.0583046875,1.390160226935148,-0.327418475203216,1.0654881278306243
2024-12-04 21:49:04.894378500,5.06837841796875,1.4939450110584496,-0.578693768054992,0.6757423757910728
2024-12-04 21:49:04.904453600,5.07845361328125,1.0950275260478255,-0.6048483461394906,0.1027969421297311
2024-12-04 21:49:04.914527500,5.088527587890625,0.6438111140012741,-0.5747194575965404,-0.6431739851415157
2024-12-04 21:49:04.924601600,5.0986015625,0.1344406191498041,-0.3137052994102239,-1.3399059574693442
2024-12-04 21:49:04.934676700,5.1086767578125,0.2456394789218902,0.045052901430428,-1.838390316647291
2024-12-04 21:49:04.944750600,5.11875048828125,0.7979898683220148,0.3646773617565632,-2.079489814051985
2024-12-04 21:49:04.954825700,5.12882568359375,1.3473235402494668,0.794279907888174,-2.134001156440377
2024-12-04 21:49:04.964899600,5.138899658203125,0.7922305741429329,1.3186945348754524,-1.6750988660663366
2024-12-04 21:49:04.974974700,5.148974609375,0.2531792267769575,1.7677113910511135,-0.8321271157234906
2024-12-04 21:49:04.985048600,5.159048583984375,0.4056792342305183,1.7665128289163112,0.4906605336844921
2024-12-04 21:49:04.995123700,5.169123779296875,0.5405746114104986,1.4838129086226224,1.8199369605898856
2024-12-04 21:49:05.005197600,5.179197509765625,0.5991922200739384,1.225305180299282,2.696978738316893
2024-12-04 21:49:05.015272700,5.189272705078125,0.9321201063483951,1.1974667407810686,3.1394425195872784
2024-12-04 21:49:05.025346600,5.1993466796875,2.007015529471636,1.0851987904727458,3.552739243084192
2024-12-04 21:49:05.035420400,5.20942041015625,3.1261709500819443,1.1948363922774792,3.6754409091234206
2024-12-04 21:49:05.045495600,5.21949560546875,3.695628541627526,1.049209193202853,3.254709067189693
2024-12-04 21:49:05.055569700,5.229569580078125,3.3445845684260127,0.7455646845579147,2.4608897625505923
2024-12-04 21:49:05.065644500,5.23964453125,2.3583079244762657,0.5632283417671918,1.641229329690337
2024-12-04 21:49:05.075718700,5.24971875,0.9192343212902544,0.0398982951462268,1.4360650690197945
2024-12-04 21:49:05.085793500,5.25979345703125,0.3726514093756675,-0.6564566605627536,2.2309210232302545
2024-12-04 21:49:05.095867600,5.26986767578125,1.2237848388642072,-1.259765083783865,3.4699130758374928
2024-12-04 21:49:05.105942500,5.279942626953125,2.149423181977868,-1.7544722625106572,4.426282072779536
2024-12-04 21:49:05.116016600,5.2900166015625,2.55349322744608,-2.026239869901538,4.389025232052803
2024-12-04 21:49:05.126091500,5.300091552734375,2.8322844498634336,-2.29867558581233,3.980865871444344
2024-12-04 21:49:05.136165600,5.31016552734375,2.844485759788752,-2.3433365653157234,3.4270296274006364
2024-12-04 21:49:05.146239500,5.320239501953125,2.653194833908975,-2.635715583580732,4.1884792788326735
2024-12-04 21:49:05.156314600,5.330314697265625,2.5768700113803145,-2.1951140890508887,3.741815123263001
2024-12-04 21:49:05.166388500,5.340388427734375,2.4382103132307527,-1.4578408474981783,2.559870945784449
2024-12-04 21:49:05.176463600,5.350463623046875,2.323265252667665,-1.016404071187973,1.5112036043733357
2024-12-04 21:49:05.186537500,5.360537353515625,2.1984619381740687,-1.0554185692369935,1.2415820691004396
2024-12-04 21:49:05.196612600,5.370612548828125,2.0450451081365344,-1.1445792002022266,1.1538912184268235
2024-12-04 21:49:05.206686500,5.3806865234375,1.8537679185211653,-1.2033201429843905,1.1546151487872005
2024-12-04 21:49:05.216761600,5.39076171875,1.3343804720461367,-0.8450473875731229,1.0806377661675215
2024-12-04 21:49:05.226835500,5.40083544921875,1.0095905917808412,-0.4363999511867761,1.1334139553263782
2024-12-04 21:49:05.236910600,5.41091064453125,0.7103671144485473,-0.463424151712656,1.3671961154550314
2024-12-04 21:49:05.246984400,5.420984375,0.2989186491668224,-0.5243003529578447,1.6456313640415667
2024-12-04 21:49:05.257058600,5.43105859375,0.0678951400965452,-0.1714998914778232,1.7765762500301003
2024-12-04 21:49:05.267133400,5.441133544921875,0.2261842523455619,-0.0736310534000396,1.4355834229826927
2024-12-04 21:49:05.277207600,5.45120751953125,0.1244020402163267,-0.3380073814958333,1.109488597598672
2024-12-04 21:49:05.287282400,5.461282470703125,-0.1251022974401712,-0.3546411209106445,1.0035609562277794
2024-12-04 21:49:05.297356500,5.4713564453125,-0.5180149890780449,-0.4206348113000392,0.9444605324834584
2024-12-04 21:49:05.307431400,5.481431396484375,-0.6412549997776746,-0.3750882811337709,0.6969026527196168
2024-12-04 21:49:05.317505500,5.491505615234375,-0.3204348999261855,-0.2970686373859644,0.4170762420356273
2024-12-04 21:49:05.327580400,5.501580322265625,-0.1701306489512324,-0.4225292467445135,0.0598749152481555
2024-12-04 21:49:05.337654500,5.511654541015625,-0.4365934279322624,-0.3658458210140466,0.0209387431323528
2024-12-04 21:49:05.347729400,5.5217294921875,-0.5877183476403355,0.175924137660861,0.0301703895971179
2024-12-04 21:49:05.357803500,5.531803466796875,-0.409905912014842,0.6708271312206984,-0.3324301658853888
2024-12-04 21:49:05.367877400,5.54187744140625,-0.934653424218297,0.8105839769572019,-0.718631669446826
2024-12-04 21:49:05.377952500,5.551952392578125,-1.4320248537182807,1.1074445245504378,-1.1486316904634235
2024-12-04 21:49:05.388026400,5.5620263671875,-0.9669500121891498,1.2800257815241811,-1.491081438320875
2024-12-04 21:49:05.398101500,5.5721015625,-0.2247311309278011,0.9227917215108872,-1.536872883158922
2024-12-04 21:49:05.408175400,5.58217529296875,0.359655149680376,0.3353600818574428,-1.152866551554203
2024-12-04 21:49:05.418250500,5.59225048828125,0.8974684796839952,0.0242056359738111,-0.7368178990006446
2024-12-04 21:49:05.428324400,5.602324462890625,1.2040361822992562,0.0125543611466884,-0.5331441691488027
2024-12-04 21:49:05.438399500,5.6123994140625,1.585984412330389,0.033946693265438,-0.5324959343731404
2024-12-04 21:49:05.448473300,5.622473388671875,2.4020260701715945,0.1099275246620178,-0.5091799407154322
2024-12-04 21:49:05.458547700,5.632547607421875,3.50941009670645,0.128168699273467,-0.4470627994984388
2024-12-04 21:49:05.468622300,5.642622314453125,3.976387264725566,0.0564367574930191,0.0011573533415794
2024-12-04 21:49:05.478696700,5.65269677734375,2.07922151850462,-0.1243389118522405,0.5785860698968172
2024-12-04 21:49:05.488771300,5.662771240234375,-0.7821960868626833,-0.0173614691674709,0.2363777295798063
2024-12-04 21:49:05.498845700,5.672845703125,-2.292851409703493,0.353746802419424,-0.5558528445631266
2024-12-04 21:49:05.508920300,5.68292041015625,-1.8217372880101204,0.4435124135404825,-1.1419780777931212
2024-12-04 21:49:05.518994700,5.69299462890625,0.4762380405783653,0.3814636613845825,-1.4769418538093566
2024-12-04 21:49:05.529069300,5.7030693359375,1.8960194987952708,-0.010692074406147,-1.144509642097354
2024-12-04 21:49:05.539143700,5.713143798828125,2.1851690336197613,-0.4830307694584131,-0.5168310399904846
2024-12-04 21:49:05.549218300,5.72321826171875,1.7740075685858725,-0.9479331770300864,0.2968552868962287
2024-12-04 21:49:05.559292700,5.733292724609375,0.0978816975593566,-1.1230845767527815,0.9654118428364395
2024-12-04 21:49:05.569366500,5.743366455078125,-1.6947727038294076,-0.6659779376238584,0.530111085063219
2024-12-04 21:49:05.579441700,5.753441650390625,-1.892567312514782,0.271349089717865,-1.118664129962027
2024-12-04 21:49:05.589515500,5.763515625,-0.93571082431674,0.8360767301321029,-2.01002932433486
2024-12-04 21:49:05.599590700,5.773590576171875,-0.3405512207597494,0.6410732134699821,-1.7752847489148378
2024-12-04 21:49:05.609664500,5.78366455078125,-0.3933189343512058,0.4851338792175054,-1.176551670785248
2024-12-04 21:49:05.619739600,5.79373974609375,-0.526483542215824,0.1008218426644802,-0.6819789320930838
2024-12-04 21:49:05.629813500,5.8038134765625,-3.39022696018e-05,-0.222459678864479,-0.4263271777227521
2024-12-04 21:49:05.639888600,5.813888671875,0.2395440846562385,-0.0421346758961677,-0.2199079485550522
2024-12-04 21:49:05.649962500,5.82396240234375,-0.1271796882361173,0.2771943086147308,-0.0996066216558217
2024-12-04 21:49:05.660036600,5.83403662109375,-0.3438812419652938,0.4551315396636724,-0.1572264514535665
2024-12-04 21:49:05.670111500,5.844111572265625,-0.3740606916517019,0.4049941745758056,-0.2571028299614787
2024-12-04 21:49:05.680185600,5.854185546875,-0.1868979516178369,0.4876420626461505,-0.6421002184301614
2024-12-04 21:49:05.690260700,5.8642607421875,0.4252005117803811,0.5768272435307502,-0.8539733290895819
2024-12-04 21:49:05.700334600,5.87433447265625,0.7078080776154995,0.3986982893019914,-0.7179910334557295
2024-12-04 21:49:05.710409700,5.88440966796875,0.890917158344388,0.0157137019604444,-0.161149470116198
2024-12-04 21:49:05.720483600,5.894483642578125,1.4457839144796132,-0.7593634928077458,0.5303562919959426
2024-12-04 21:49:05.730558700,5.904558837890625,1.6524188322246074,-1.6971937934964894,0.5768459482312203
2024-12-04 21:49:05.740632600,5.914632568359375,1.8680828595995904,-2.046885767567157,0.5762123265028
2024-12-04 21:49:05.750707700,5.924707763671875,0.6211497848600149,-2.016319364389777,1.2185495685592294
2024-12-04 21:49:05.760781600,5.934781494140625,-1.1667781725287436,-1.5644506259143351,1.1690876185148953
2024-12-04 21:49:05.770855400,5.94485546875,-0.4618669853985309,-0.3148737586677074,0.2984855184465647
2024-12-04 21:49:05.780930600,5.9549306640625,-0.1214858605086803,1.1091770474314688,-0.4651742102503776
2024-12-04 21:49:05.791004400,5.96500439453125,-1.2611924862384796,1.4724363590836524,-0.20643734934628
2024-12-04 21:49:05.801079600,5.97507958984375,-0.7025105557292699,1.243593701183796,-0.0210956872597336
2024-12-04 21:49:05.811153700,5.985153564453125,0.4189309299916028,0.9324223041653632,-0.1717132419675588
2024-12-04 21:49:05.821228500,5.995228515625,-0.5071873055934906,0.6180021344840526,-0.5892369355097413
2024-12-04 21:49:05.831302700,6.005302734375,-1.6875369073569773,0.4506155235439538,-1.1260708990871906
2024-12-04 21:49:05.841377500,6.01537744140625,-1.7811276297241447,0.4430208306312561,-1.4262228894412516
2024-12-04 21:49:05.851451600,6.02545166015625,-1.706954140010476,0.4757750992417335,-1.3528764982014894
2024-12-04 21:49:05.861526000,6.035526123046875,-1.2773556855320929,0.5517179367154836,-1.0790931670740247
2024-12-04 21:49:05.871601200,6.04560107421875,-0.8428273734360933,0.6115741472631693,-0.5729322819188237
2024-12-04 21:49:05.881675000,6.055675048828125,-0.7757967412143946,0.646636692816019,-0.2094678030833602
2024-12-04 21:49:05.891750100,6.065750244140625,-0.8869920938551425,0.6887637699276209,0.0235614928513765
2024-12-04 21:49:05.901824000,6.075823974609375,-0.8846294563770294,0.6981845092236996,0.05056961902529
2024-12-04 21:49:05.911899100,6.085899169921875,-0.0818365716874599,0.5506348176538944,-0.0632058132365346
2024-12-04 21:49:05.921973000,6.095972900390625,0.508137738186121,0.2349550033003091,-0.1816495295703411
2024-12-04 21:49:05.932048100,6.106048095703125,0.5773410382717847,-0.1429933434396982,-0.2651046423703432
2024-12-04 21:49:05.942122000,6.1161220703125,0.2444634208798408,-0.2570627902120351,-0.251934195151925
2024-12-04 21:49:05.952195800,6.12619580078125,-0.1360159056425094,-0.2875818471163511,0.0409957349941134
2024-12-04 21:49:05.962271000,6.13627099609375,-0.4142658607900142,-0.3582178103536367,0.5069014743894338
2024-12-04 21:49:05.972344800,6.1463447265625,-0.3065741323560476,-0.4165314676344394,0.7442620775267481
2024-12-04 21:49:05.982420000,6.156419921875,0.0588484948098659,-0.3982593133628368,0.7610355176731943
2024-12-04 21:49:05.992494000,6.166494140625,0.2581312962263822,-0.38506782335639,0.8329688272446394
2024-12-04 21:49:06.002569000,6.17656884765625,0.4269271894425153,-0.4135626809567213,0.9325082288831472
2024-12-04 21:49:06.012643000,6.18664306640625,0.6053039809525013,-0.3569143265396356,0.8476327278912067
2024-12-04 21:49:06.022718000,6.196718017578125,0.5591951407283544,-0.3889572320103645,0.6362050229117274
2024-12-04 21:49:06.032792000,6.2067919921875,0.647397740316391,-0.4872691376805305,0.4152586712196469
2024-12-04 21:49:06.042866000,6.216865966796875,0.8839782989919185,-0.5467419018685817,0.306875453390181
2024-12-04 21:49:06.052941000,6.226941162109375,0.9551596211522816,-0.5751052420437336,0.3200441470429301
2024-12-04 21:49:06.063015000,6.237014892578125,0.6831412538707256,-0.6592617811113596,0.4540539735600352
2024-12-04 21:49:06.073090000,6.247090087890625,0.5814426283717156,-0.6797527804762125,0.4114201159700751
2024-12-04 21:49:06.083164000,6.257163818359375,0.6925988180458545,-0.5142950917720794,0.195831199657917
2024-12-04 21:49:06.093239000,6.267239013671875,0.3585632627904415,-0.3306383140325546,-0.0780687435865402
2024-12-04 21:49:06.103313000,6.27731298828125,0.2111392434269189,-0.0866360809236764,-0.2740267844945192
2024-12-04 21:49:06.113388000,6.287387939453125,0.4997697228133678,0.1312158118844032,-0.314074424983561
2024-12-04 21:49:06.123462000,6.2974619140625,0.8263660679787397,0.2195008290588855,-0.2225266066208481
2024-12-04 21:49:06.133536000,6.307535888671875,0.7319359721779823,-0.0902607011616229,-0.1371589381977915
2024-12-04 21:49:06.143611000,6.31761083984375,0.5781301428228617,-0.3309995485603809,-0.1847571401968598
2024-12-04 21:49:06.153685000,6.32768505859375,0.4574415701717138,-0.5205243415504693,-0.2639820680812001
2024-12-04 21:49:06.163759900,6.337759765625,0.2538005735456943,-0.6891320187181234,-0.3138146050035953
2024-12-04 21:49:06.173834000,6.347833984375,-0.019185177463293,-0.6096276893705129,-0.4461152895152568
2024-12-04 21:49:06.183908900,6.357908935546875,-0.2566933723777532,-0.3192196789175271,-0.6224892167702317
2024-12-04 21:49:06.193983000,6.36798291015625,-0.2305097143292427,-0.1646282521426677,-0.7875342330202459
2024-12-04 21:49:06.204057900,6.378057861328125,0.1784972030192613,-0.1806879910618066,-0.8066726487323641
2024-12-04 21:49:06.214132000,6.388132080078125,0.5698457140803337,-0.3146802819222211,-0.614027093373239
2024-12-04 21:49:06.224206000,6.3982060546875,0.9896090032428504,-0.4925163906842469,-0.3094216307416558
2024-12-04 21:49:06.234281000,6.408281005859375,1.1777759518831967,-0.6753524996906518,-0.0389893636077642
2024-12-04 21:49:06.244355000,6.41835498046875,1.056746018448472,-0.7158113513290881,0.0562972028918564
2024-12-04 21:49:06.254430000,6.428429931640625,1.039865610796213,-0.647058133098483,0.0553743889585137
2024-12-04 21:49:06.264504000,6.438504150390625,1.0591367129772902,-0.6767495070070028,-0.0422483654037117
2024-12-04 21:49:06.274579000,6.448578857421875,0.927303061455488,-0.7477174786776304,-0.2079258343383669
2024-12-04 21:49:06.284653000,6.458653076171875,0.7037216850847006,-0.7401859141290187,-0.3011605828747153
2024-12-04 21:49:06.294728000,6.46872802734375,0.484964952391386,-0.6000263328105211,-0.4456944337546825
2024-12-04 21:49:06.304802000,6.478802001953125,0.3580915536254644,-0.5278039771646261,-0.4857303838059306
2024-12-04 21:49:06.314876200,6.488876220703125,0.0378045377373695,-0.5873030448377132,-0.1184434240728616
2024-12-04 21:49:06.324951000,6.498950927734375,-0.4540612800836562,-0.4288379914999008,0.0267836697682738
2024-12-04 21:49:06.335025200,6.509025146484375,-0.8056763311713934,-0.1759673922806978,0.1537428471215069
2024-12-04 21:49:06.345100000,6.51910009765625,-1.131919040593505,-0.0308224237650632,0.5386984422750771
2024-12-04 21:49:06.355174100,6.529174072265625,-1.225118717816472,0.1352139416098594,0.5221545731008053
2024-12-04 21:49:06.365249000,6.5392490234375,-0.9208324041366576,0.1777899315327405,0.6365446301296352
2024-12-04 21:49:06.375323100,6.5493232421875,-0.3314204043209552,0.2057172183781862,0.8431731181338429
2024-12-04 21:49:06.385397000,6.55939697265625,0.190187640812993,0.2460661799013614,1.010331765536964
2024-12-04 21:49:06.395472100,6.56947216796875,0.4853641808420419,0.260130945611,1.2089525959134102
2024-12-04 21:49:06.405546000,6.5795458984375,0.3917009777605533,0.2092015533626079,1.4263057454191148
2024-12-04 21:49:06.415621000,6.58962109375,0.179359372806549,0.1615273635178804,1.4809258088789878
2024-12-04 21:49:06.425695000,6.599695068359375,0.0535650014489889,0.1568891823232173,1.491897284748405
2024-12-04 21:49:06.435770000,6.60977001953125,-0.2673883693933487,0.1307633919417858,1.3992755535438657
2024-12-04 21:49:06.445844000,6.619843994140625,-0.5064414556622505,-0.0181438517168164,1.5273665114060044
2024-12-04 21:49:06.455919000,6.629919189453125,-0.9526473460704088,-0.144026778140664,1.5286501214757562
2024-12-04 21:49:06.465993000,6.639992919921875,-1.0172738397598269,-0.2014867412015795,1.4245704460591078
2024-12-04 21:49:06.476067000,6.650067138671875,-0.8221171783626079,-0.1750423863902687,1.2929445920690894
2024-12-04 21:49:06.486142000,6.660141845703125,-0.6086486152052879,-0.0742661364331841,1.3526529185786842
2024-12-04 21:49:06.496216000,6.670216064453125,-0.2521434539884328,0.0422322910517454,1.250648588131368
2024-12-04 21:49:06.506291000,6.680291015625,0.1790858165621757,0.0664063628435134,1.1674625015310942
2024-12-04 21:49:06.516365000,6.690364990234375,0.4283253658026457,-0.0913464505717158,1.2354612481325864
2024-12-04 21:49:06.526440000,6.70043994140625,0.7516735228270292,-0.3129188252076506,1.1758867771357298
2024-12-04 21:49:06.536514000,6.71051416015625,0.9461562304854392,-0.5874500520929694,1.22573772649765
2024-12-04 21:49:06.546589000,6.7205888671875,1.130870992845297,-0.7578311686739325,1.2687576607957485
2024-12-04 21:49:06.556663000,6.7306630859375,1.4403046062856912,-0.9294017873004078,1.5857270765684544
2024-12-04 21:49:06.566737000,6.74073681640625,1.4600140998840332,-1.0756418575763702,1.851113020098209
2024-12-04 21:49:06.576812000,6.75081201171875,1.458345289888978,-1.220244097517431,1.970629772491008
2024-12-04 21:49:06.586886000,6.760885986328125,1.5011685325711963,-1.2906839536607264,1.9187420566044744
2024-12-04 21:49:06.596961000,6.7709609375,1.3330290574371817,-1.1636728999897836,1.7935091185219585
2024-12-04 21:49:06.607035000,6.781034912109375,1.1039309634715315,-0.8977055033102631,1.607372360534966
2024-12-04 21:49:06.617110000,6.791110107421875,0.8284037112861872,-0.515209868529439,1.26094026504308
2024-12-04 21:49:06.627183900,6.801183837890625,0.5281096821129322,-0.0866354964017868,0.94833225935027
2024-12-04 21:49:06.637258000,6.811258056640625,0.3186000857144594,0.1983326610848307,0.6250795255243777
2024-12-04 21:49:06.647332900,6.821332763671875,0.1442564952433109,0.4406920954227447,0.2022828600153327
2024-12-04 21:49:06.657407000,6.831406982421875,-0.2199801370084285,0.6046928633168339,-0.0965310136027634
2024-12-04 21:49:06.667481900,6.84148193359375,-0.3794622584342956,0.658760115199536,-0.1084109826192259
2024-12-04 21:49:06.677556000,6.851555908203125,-0.6218710848718881,0.8319757245540619,0.0965378817349672
2024-12-04 21:49:06.687630800,6.861630859375,-0.5636795926660298,0.935470293559134,-0.0438115230672061
2024-12-04 21:49:06.697705000,6.871705078125,-0.2511141109406948,1.0700424301341176,-0.3990095472082495
2024-12-04 21:49:06.707778800,6.88177880859375,0.2474754621773958,1.1111202904537318,-0.4212264935828745
2024-12-04 21:49:06.717854000,6.89185400390625,0.6069365505903959,1.030475193573162,-0.4070313794918358
2024-12-04 21:49:06.727927800,6.901927734375,0.8834609971195458,0.9686789548736066,-0.6802417330369352
2024-12-04 21:49:06.738003000,6.9120029296875,0.7302654086172581,0.7437935101669281,-0.972233213289082
2024-12-04 21:49:06.748076800,6.922076904296875,0.3919306948632001,0.4895024862231686,-1.1466980920523404
2024-12-04 21:49:06.758152000,6.93215185546875,-0.0511690462231636,0.2696354542003944,-1.1886065579771994
2024-12-04 21:49:06.768225800,6.942225830078125,-0.1895727237850427,0.1230739516840316,-1.8584701048627488
2024-12-04 21:49:06.778301000,6.952301025390625,0.257488322147727,0.3301260171288624,-3.0184795139089227
2024-12-04 21:49:06.788374800,6.962374755859375,-0.299592602905631,-0.2834222432188689,-2.678663329425454
2024-12-04 21:49:06.798449200,6.97244921875,-0.9162994368821382,-0.9282659882035106,-2.8795944825708863
2024-12-04 21:49:06.808523800,6.982523681640625,-1.064198672541976,-0.6847672476373613,-3.382297336226701
2024-12-04 21:49:06.818598100,6.99259814453125,-0.6023007074832916,-0.6800527132708579,-3.190683462002873
2024-12-04 21:49:06.828672800,7.0026728515625,-0.2010258456915616,-0.5619439279798418,-2.675996740564704
2024-12-04 21:49:06.838747100,7.0127470703125,-0.1017220063745975,-0.3967247242067009,-2.129086058000475
2024-12-04 21:49:06.848821800,7.02282177734375,-0.2683136675447225,-0.3038902270343154,-1.7357190467238426
2024-12-04 21:49:06.858896100,7.032896240234375,-0.7149269697099924,-0.2704422040060162,-1.6175639380730689
2024-12-04 21:49:06.868970200,7.04297021484375,-1.305948158288002,-0.3209289670534431,-1.5718787300884722
2024-12-04 21:49:06.879045000,7.053045166015625,-1.6809809098422526,-0.3593086743302643,-1.6093094660773872
2024-12-04 21:49:06.889119200,7.063119140625,-1.743788371410966,-0.1987770438514649,-1.3319905081696808
2024-12-04 21:49:06.899194000,7.073194091796875,-1.7064187179595232,0.0381450217381119,-0.8763590561598539
2024-12-04 21:49:06.909268200,7.083268310546875,-1.7669184871077537,0.2243655124858021,-0.6303466522723435
2024-12-04 21:49:06.919343400,7.09334326171875,-1.7780419386684894,0.6561680528797209,-0.0013515607394278
2024-12-04 21:49:06.929417200,7.103417236328125,-1.7489882781416175,0.73523662115857,0.6901289208009839
2024-12-04 21:49:06.939491000,7.113490966796875,-1.6657909394949673,0.7756601092226802,1.322026309646666
2024-12-04 21:49:06.949566200,7.123566162109375,-0.7102882039934396,1.1520813925258817,1.189916763792932
2024-12-04 21:49:06.959640000,7.13364013671875,-0.056681087642908,1.9759499446004627,0.9765523916624486
2024-12-04 21:49:06.969715200,7.143715087890625,-0.2787304321408271,2.274173012718558,0.6653580521598458
2024-12-04 21:49:06.979789000,7.1537890625,-0.4867079966664314,2.2856565297633407,-0.2351654311805963
2024-12-04 21:49:06.989864200,7.1638642578125,-0.4543979646921157,1.970949359834194,-0.5855646767377853
2024-12-04 21:49:06.999938000,7.17393798828125,0.2189952176243066,1.426616418803483,-0.3651679217524826
2024-12-04 21:49:07.010012200,7.18401220703125,0.0020014029502868,1.4502742116361855,0.3839741829007864
2024-12-04 21:49:07.020087000,7.194087158203125,-1.0090046085864306,1.487656578438729,0.947955534992367
2024-12-04 21:49:07.030161200,7.2041611328125,-1.7831804706007242,2.52760533747375,0.6586299129486084
2024-12-04 21:49:07.040236300,7.214236328125,-1.2962848424077034,2.998412877435982,0.4809354046143591
2024-12-04 21:49:07.050310100,7.22431005859375,-0.9774386729776858,2.47189747877717,0.4187083732821047
2024-12-04 21:49:07.060385300,7.23438525390625,-1.079582704156637,2.618830499753356,0.3101562286265194
2024-12-04 21:49:07.070459100,7.244459228515625,-1.257452130666375,2.351737606175244,0.0304616276286542
2024-12-04 21:49:07.080533000,7.254532958984375,-0.842486597174406,1.5590819384880363,-0.6497668075352907
2024-12-04 21:49:07.090608000,7.264608154296875,-0.5620955383449793,-0.0276614755161106,-1.3172133564069866
2024-12-04 21:49:07.100682000,7.274681884765625,-0.4899748895078897,-1.3379605224899946,-1.8724029147557912
2024-12-04 21:49:07.110757000,7.284757080078125,-0.503266332757473,-2.1797060920387503,-2.171531991802901
2024-12-04 21:49:07.120831000,7.2948310546875,-0.3410720297634601,-2.6549559983626008,-1.880542089808732
2024-12-04 21:49:07.130906000,7.304906005859375,-0.3098684977263212,-3.256686504742503,-0.4771932954765856
2024-12-04 21:49:07.140980000,7.31497998046875,-1.4869056139409542,-3.977086352905631,2.0002160785898564
2024-12-04 21:49:07.151054000,7.32505419921875,-3.028866175627708,-4.269086016464233,3.948476636753976
2024-12-04 21:49:07.161129200,7.335129150390625,-4.730878767582774,-2.382942599517107,4.147618276134133
2024-12-04 21:49:07.171203000,7.345203125,-4.781923895165324,-0.1500625511735677,2.895373066461086
2024-12-04 21:49:07.181278200,7.3552783203125,0.690753482440114,2.084821822729707,0.6872028042212128
2024-12-04 21:49:07.191352000,7.36535205078125,7.664499439373612,3.5833360413998365,-0.8091983678176998
2024-12-04 21:49:07.201426000,7.375426025390625,7.62681122149229,3.2520448164165017,-0.852067203207314
2024-12-04 21:49:07.211501000,7.3855009765625,3.393814755541086,3.412089540161192,-2.3413392540186644
2024-12-04 21:49:07.221575000,7.395574951171875,4.257553984102606,3.682693072208762,-4.413526051580906
2024-12-04 21:49:07.231650000,7.405650146484375,5.608369458121061,3.9521535717010496,-4.307014472842217
2024-12-04 21:49:07.241724000,7.415723876953125,4.462870804986357,3.18414266205728,-3.514666409799456
2024-12-04 21:49:07.251799000,7.425799072265625,-10.878665483772751,-3.128348878642917,0.645471156167984
2024-12-04 21:49:07.261873000,7.435872802734375,-16.82104477818608,-2.2737704232670364,0.3443792546153068
2024-12-04 21:49:07.271947300,7.445947265625,1.9665397266983984,1.1648945507392288,-3.9999069642618297
2024-12-04 21:49:07.282022000,7.45602197265625,6.621614773017168,-0.000258212544769,-4.169319528071582
2024-12-04 21:49:07.292096300,7.46609619140625,1.878179890722036,-1.5252332987695931,-2.568447343210876
2024-12-04 21:49:07.302171100,7.476171142578125,-0.0900496887594461,-2.5658371607124804,-0.8463403499931097
2024-12-04 21:49:07.312245200,7.486245361328125,-0.13362754920125,-2.507492816032469,0.016969547240436
2024-12-04 21:49:07.322320100,7.496320068359375,0.3607593115299939,-2.712350787232816,1.7738339655846356
2024-12-04 21:49:07.332394200,7.506394287109375,-0.5943330896049738,-5.75329990710318,5.206971262210607
2024-12-04 21:49:07.342468000,7.516468017578125,0.0942412952303886,-6.746768508383632,7.545584890657663
2024-12-04 21:49:07.352543200,7.526543212890625,1.5990011302918197,-1.6045403519794343,4.821765783949196
2024-12-04 21:49:07.362617000,7.5366171875,0.2479009941130876,3.296872384658456,-0.5532733494639396
2024-12-04 21:49:07.372692200,7.546692138671875,-2.234323817411065,5.501591921922564,-3.930930458669364
2024-12-04 21:49:07.382766000,7.55676611328125,-2.394059621337056,7.931915865817666,-5.361793575131893
2024-12-04 21:49:07.392841200,7.56684130859375,-0.3017798838168382,12.945497476303576,-7.124390107387304
2024-12-04 21:49:07.402915000,7.5769150390625,0.0229237794697284,14.621141701292991,-6.782637694144249
2024-12-04 21:49:07.412989200,7.5869892578125,-0.375198171249032,8.311040855121613,-4.189392009763419
2024-12-04 21:49:07.423064300,7.597064208984375,-0.1647451565206051,1.8972160151034592,-1.7620380215898157
2024-12-04 21:49:07.433138200,7.60713818359375,1.5699948160380124,-2.7035902654111386,1.6868962713658808
2024-12-04 21:49:07.443213300,7.61721337890625,2.5091671789854764,-5.669508694216609,4.771368306620419
2024-12-04 21:49:07.453287200,7.627287109375,0.3795551974147558,-6.150003807717561,5.001833305025101
2024-12-04 21:49:07.463361000,7.637361083984375,-1.97677645855248,-2.828893638381362,3.054412997077405
2024-12-04 21:49:07.473436200,7.647436279296875,-1.327550333765149,3.766236447814107,-0.0193172794103622
2024-12-04 21:49:07.483510000,7.657510009765625,-1.2442132943868636,5.801908747449517,-0.9122530841007828
2024-12-04 21:49:07.493585200,7.667585205078125,-1.0315320822149514,3.967984762561321,0.5701233619779348
2024-12-04 21:49:07.503659000,7.677658935546875,-1.4686556715011596,2.0419230305932463,1.309843704421818
2024-12-04 21:49:07.513734100,7.687734130859375,-2.096632087510824,1.9082868596941231,0.9399962465509772
2024-12-04 21:49:07.523808000,7.69780810546875,-0.9993974068075416,1.773366932594776,0.0267070974007248
2024-12-04 21:49:07.533882000,7.707882080078125,-0.0995621979922056,1.3220958677515386,-0.1288490827530622
2024-12-04 21:49:07.543957200,7.717957275390625,0.5715881738334894,0.6381434436284005,1.2075582189455627
2024-12-04 21:49:07.554031000,7.728031005859375,1.0897697516500948,0.2363343288294971,2.6995272537559267
2024-12-04 21:49:07.564106200,7.738106201171875,1.146928393676877,-0.8275456331521273,2.682530233986676
2024-12-04 21:49:07.574180000,7.74818017578125,1.523441154655814,-1.4334271217316388,1.299705756767094
2024-12-04 21:49:07.584255200,7.758255126953125,2.0405226622760293,-2.070145354862511,-0.2579793205350637
2024-12-04 21:49:07.594329000,7.7683291015625,2.299032144165039,-2.4026216979771853,-1.0174097410991787
2024-12-04 21:49:07.604403000,7.77840283203125,2.24328512250185,-1.5092144763827322,-0.0379842782184481
2024-12-04 21:49:07.614478000,7.78847802734375,2.2293898681402204,-0.8868634990394115,1.2433671989515422
2024-12-04 21:49:07.624552000,7.798552001953125,2.6578829917252063,-0.7106967847943305,2.5758593730330466
2024-12-04 21:49:07.634627000,7.808626953125,2.5380969208717343,0.1601142818495631,3.7057770106762646
2024-12-04 21:49:07.644701000,7.818700927734375,2.494528412780165,0.559412290610373,3.406080362874269
2024-12-04 21:49:07.654775000,7.828775146484375,2.53909528425932,-0.1356611008554697,2.503539109970629
2024-12-04 21:49:07.664850200,7.83885009765625,2.843551693809032,-0.914185221207142,1.8030045304894449
2024-12-04 21:49:07.674924000,7.848924072265625,2.813471028321981,-2.4500886748120188,-0.3885188405930995
2024-12-04 21:49:07.684999200,7.858999267578125,1.8536136047422884,-2.7232866072669624,-0.5409586422920226
2024-12-04 21:49:07.695073000,7.869072998046875,1.3206640813827517,-1.184262099032104,0.651107116228342
2024-12-04 21:49:07.705148200,7.879148193359375,1.063627594655752,0.0014057751446962,-0.0340869785189628
2024-12-04 21:49:07.715222000,7.889221923828125,1.6986048293381928,-0.17183219217211,-0.9734837978720664
2024-12-04 21:49:07.725296000,7.899296142578125,1.62037300414443,-1.5264870982229708,-0.7452934664011002
2024-12-04 21:49:07.735371000,7.90937109375,1.5775129365831613,-1.9417682735353707,-0.2793354122966527
2024-12-04 21:49:07.745445000,7.919445068359375,1.96918527277112,-1.3478332433372735,0.295856923508644
2024-12-04 21:49:07.755520000,7.92952001953125,2.9761750344038007,-1.5875830796986818,-0.2259837613373994
2024-12-04 21:49:07.765594000,7.939593994140625,2.2590584456950427,-2.1058380150124427,0.9826701438903808
2024-12-04 21:49:07.775668200,7.949668212890625,0.960863970273733,-1.8108055596292016,1.3416039935588835
2024-12-04 21:49:07.785743000,7.9597431640625,-0.4271194971442222,0.3880892170041799,-0.2463046648323535
2024-12-04 21:49:07.795817200,7.969817138671875,-1.194801320964098,1.1422057490691542,-0.0240612590670585
2024-12-04 21:49:07.805892400,7.979892333984375,-0.6738941175758838,1.7562544697523117,0.6719102502822876
2024-12-04 21:49:07.815966200,7.98996630859375,0.4198971446752548,1.3470952844515445,1.185301086691022
2024-12-04 21:49:07.826040000,8.0000400390625,0.9546528406739234,0.8035425340130925,1.90409759131074
2024-12-04 21:49:07.836115200,8.010115234375,0.2990115881472825,2.5795690412059424,3.616187340644002
2024-12-04 21:49:07.846189000,8.02018896484375,0.0415571682691574,2.7350416347295043,2.6625492299705744
2024-12-04 21:49:07.856264200,8.03026416015625,1.6752642857611175,0.703125765018165,-0.7935363960444927
2024-12-04 21:49:07.866338800,8.0403388671875,0.9499737429469824,1.1962176175028083,-1.8348200569450848
2024-12-04 21:49:07.876413700,8.05041357421875,1.0235130264103411,2.051080881169438,-1.2347820336967703
2024-12-04 21:49:07.886487800,8.06048779296875,-0.6784189015239477,2.889965069937706,-1.075285883745551
2024-12-04 21:49:07.896561700,8.070561767578125,-2.3726421547770498,3.840106570667028,-2.137031317916513
2024-12-04 21:49:07.906636800,8.08063671875,0.1342611709296703,3.618195757856965,-1.7539619749009607
2024-12-04 21:49:07.916710700,8.090710693359375,2.659841724577546,1.6997930162094532,-2.715266090157628
2024-12-04 21:49:07.926785800,8.100785888671876,4.296999274784326,1.3173480887025597,-2.446362640026212
2024-12-04 21:49:07.936859600,8.110859619140625,3.945142231634259,1.2372332262411714,-2.264371165150404
2024-12-04 21:49:07.946933800,8.120933837890625,2.9302181698709724,1.8441946190118788,-0.8455851477116346
2024-12-04 21:49:07.957008600,8.131008544921874,1.876656626677513,2.300331828586757,0.5171966584324836
2024-12-04 21:49:07.967082800,8.141082763671875,-0.1090396359115838,2.7005907913342115,1.2958406057715417
2024-12-04 21:49:07.977157600,8.15115771484375,-2.291220593631268,3.541478721140325,1.7449013010889292
2024-12-04 21:49:07.987231700,8.161231689453125,-2.676107799723744,4.743235560330748,1.910388800409436
2024-12-04 21:49:07.997305600,8.1713056640625,-2.920512183892727,6.575367401105165,-1.0794815818697214
2024-12-04 21:49:08.007380700,8.181380615234374,-3.418580363485217,7.873470691111684,-2.2509271616876125
2024-12-04 21:49:08.017454600,8.19145458984375,-3.3307655941709875,7.497084771382808,-4.312349988651276
2024-12-04 21:49:08.027529700,8.20152978515625,-3.7472231197863817,7.695057074722647,-8.202889692482351
2024-12-04 21:49:08.037603600,8.211603515625,-3.772860834389925,5.332839867848158,-11.117401759177444
2024-12-04 21:49:08.047677700,8.221677734375,-2.2074366872683164,0.6855339942261576,-12.708062346625328
2024-12-04 21:49:08.057752600,8.231752685546875,0.2545055069446563,-2.480569737793505,-13.595413336920736
2024-12-04 21:49:08.067826700,8.24182666015625,2.659002351143956,-4.405239577011764,-13.703399079865216
2024-12-04 21:49:08.077901600,8.251901611328124,4.2779958836287255,-6.305494813680649,-12.597861265718937
2024-12-04 21:49:08.087975700,8.2619755859375,4.650563414113224,-6.1408040176957845,-14.178906468081474
2024-12-04 21:49:08.098050600,8.272050537109376,4.112687832528352,-5.303129204717278,-15.104743548637629
2024-12-04 21:49:08.108124700,8.282124755859375,2.9241718754440544,-6.33471506294608,-12.351209394884108
2024-12-04 21:49:08.118198500,8.292198486328125,0.9816238497078418,-8.36158563196659,-9.272616773056985
2024-12-04 21:49:08.128273700,8.302273681640624,-0.80968293646425,-9.18086203394532,-7.182226210284233
2024-12-04 21:49:08.138347500,8.312347412109375,-1.972532829633355,-8.488689916878938,-5.735663128125667
2024-12-04 21:49:08.148422700,8.322422607421874,-1.8780600637346505,-6.904135245090723,-4.856418287396431
2024-12-04 21:49:08.158496500,8.33249658203125,-2.5410066708385943,-7.051266418987512,-3.046774757283926
2024-12-04 21:49:08.168571000,8.34257080078125,-2.8607383909314867,-6.282324365973472,-0.7955033122032881
2024-12-04 21:49:08.178645500,8.3526455078125,-2.861770364327729,-4.965724465289712,1.291832539173961
2024-12-04 21:49:08.188719900,8.362719970703125,-2.565062084686756,-3.3618481301769614,3.296697028091549
2024-12-04 21:49:08.198794500,8.37279443359375,-2.235561250251532,-1.108849569042772,5.008157831871509
2024-12-04 21:49:08.208868900,8.382868896484375,-2.143461058703065,1.3116861174181105,5.7021869749814265
2024-12-04 21:49:08.218942700,8.392942626953126,-1.969547091820836,2.901397441317141,5.876477958482504
2024-12-04 21:49:08.229017900,8.403017822265625,-1.8095570208728315,2.9279709754660725,6.096521223855018
2024-12-04 21:49:08.239091700,8.413091796875,-0.811771725437045,2.614495393158496,5.936970713368058
2024-12-04 21:49:08.249166800,8.423166748046874,0.6075783556252717,3.0074387721955773,5.3849014789968725
2024-12-04 21:49:08.259240700,8.43324072265625,1.679738216304779,3.76609966969192,5.215620432612299
2024-12-04 21:49:08.269314800,8.443314697265626,2.6092881799042225,4.679297633427381,5.497602560025453
2024-12-04 21:49:08.279389700,8.4533896484375,3.0511861439853907,5.27099160670042,6.175739721998572
2024-12-04 21:49:08.289463800,8.4634638671875,2.932593666830659,5.247948584765195,6.61476417647004
2024-12-04 21:49:08.299538700,8.47353857421875,3.0366917546868324,5.045671277707815,6.157648184990882
2024-12-04 21:49:08.309612800,8.48361279296875,2.983584433877468,3.3303575978919864,6.658831281733512
2024-12-04 21:49:08.319687700,8.493687744140624,2.2737790449649093,1.7542960291609166,7.040977664685249
2024-12-04 21:49:08.329761800,8.50376171875,2.1057781015187502,2.0455425362646578,5.58662524382472
2024-12-04 21:49:08.339835600,8.513835693359376,3.0835335853606463,3.0112773274451494,3.548554358614981
2024-12-04 21:49:08.349910800,8.523910888671875,3.4608278521060942,3.634980303919315,3.1128631402194498
2024-12-04 21:49:08.359984600,8.533984619140625,3.34067353246212,3.174301651522517,3.775340376245975
2024-12-04 21:49:08.370058800,8.544058837890624,2.00607503375113,2.5749562867134808,5.129392347967625
2024-12-04 21:49:08.380133600,8.554133544921875,1.337016665768623,2.5677155218049883,5.388538958716392
2024-12-04 21:49:08.390207700,8.564207763671876,0.985577555769682,2.95353650161624,4.537136064636707
2024-12-04 21:49:08.400282600,8.57428271484375,1.778885403755307,3.6893344099193808,3.650624155513942
2024-12-04 21:49:08.410356700,8.584356689453125,3.409057917380333,3.820544668845832,3.062140668720007
2024-12-04 21:49:08.420431600,8.594431640625,3.39242885414064,3.6935610877037046,2.252960713341832
2024-12-04 21:49:08.430505700,8.604505615234375,3.2125650389432905,3.749531688989699,1.45100281817168
2024-12-04 21:49:08.440579600,8.61457958984375,2.7729677530199286,3.3275460476025938,0.3028303792504593
2024-12-04 21:49:08.450654700,8.62465478515625,2.469618427929282,3.093333094841242,-0.5609991579430178
2024-12-04 21:49:08.460728600,8.634728515625,2.0617612651377915,2.480672321385145,-0.5635527148833498
2024-12-04 21:49:08.470803700,8.6448037109375,1.5517162320256233,1.7830451537832617,-0.4486843728182837
2024-12-04 21:49:08.480877600,8.654877685546875,1.0598831474304198,2.5335595697030424,-1.0606133614011108
2024-12-04 21:49:08.490951700,8.66495166015625,0.9995376920610666,3.132086896127462,-1.5265549027621743
2024-12-04 21:49:08.501026600,8.675026611328125,0.9805191033363342,3.397052714549005,-1.9071343286581337
2024-12-04 21:49:08.511100700,8.6851005859375,1.128155304145813,3.2461353001117703,-2.4070832074306905
2024-12-04 21:49:08.521175600,8.695175537109375,1.2641519205659628,2.7592712361007927,-2.528707161235809
2024-12-04 21:49:08.531249700,8.705249755859375,-0.820054400613904,2.3112499668337403,-3.30431539414078
2024-12-04 21:49:08.541323800,8.71532373046875,-3.127330641511082,2.1688161569729445,-3.705438572502136
2024-12-04 21:49:08.551398700,8.725398681640625,-6.307445363226533,2.007899180438369,-4.363436325027048
2024-12-04 21:49:08.561472800,8.73547265625,-7.185910451754928,2.8164848231852053,-5.704951178997755
2024-12-04 21:49:08.571547600,8.745547607421875,-7.001299734291434,3.213160666748881,-8.750435311949252
2024-12-04 21:49:08.581621800,8.755621826171875,-2.8566677804917093,2.179616367928684,-24.475771596086023
2024-12-04 21:49:08.591695600,8.765695556640624,-3.124842916348576,-1.06089451643005,-18.703308138829467
2024-12-04 21:49:08.601770800,8.775770751953125,-4.503624840179086,1.3835225424863398,-1.8531718523241576
2024-12-04 21:49:08.611844900,8.785844970703126,-1.6232348233163356,2.512978261706233,2.896622774261236
2024-12-04 21:49:08.621919700,8.795919677734375,2.751063964247704,1.850583735527098,2.626322024552524
2024-12-04 21:49:08.631993900,8.805993896484376,7.240259297057986,-0.733514181280136,-0.8108983036033809
2024-12-04 21:49:08.642067700,8.816067626953124,4.63304733890593,-0.429665674495697,-1.709631396395713
2024-12-04 21:49:08.652142800,8.826142822265625,1.7451473848044872,0.3910615108132362,-1.3771477467574178
2024-12-04 21:49:08.662216700,8.836216796875,0.5067565129607916,-0.0161626147717237,-2.4058615566812454
2024-12-04 21:49:08.672291800,8.846291748046875,-1.169271158388257,-0.4074316308557987,-3.0210028949067
2024-12-04 21:49:08.682365700,8.85636572265625,-2.7774855227053163,-0.2426858898133039,-3.0069165018871424
2024-12-04 21:49:08.692439600,8.866439453125,-3.5244290944010017,0.0314449395775794,-3.451413834811747
2024-12-04 21:49:08.702514700,8.8765146484375,-3.0193747091829777,0.6763979170903563,-3.491181489315629
2024-12-04 21:49:08.712588500,8.886588623046874,-1.8871558088600635,1.3504399187043308,-3.881970028406381
2024-12-04 21:49:08.722663700,8.89666357421875,-0.578698298099637,1.849448886278272,-3.2409187345072623
2024-12-04 21:49:08.732737500,8.906737548828126,-0.0561158549755811,1.3769772124961015,-3.1212168348059057
2024-12-04 21:49:08.742811600,8.916811767578125,0.0589250671774148,0.2673611891254782,-2.0650684899896383
2024-12-04 21:49:08.752886800,8.92688671875,0.5851163484483957,-0.2851078582182526,-1.5307050081789493
2024-12-04 21:49:08.762960600,8.936960693359374,0.9255337136954068,-0.2099409735530614,-1.6284104723885655
2024-12-04 21:49:08.773035800,8.947035888671875,0.2272352227032184,-0.3528860939368605,-1.4442818393535912
2024-12-04 21:49:08.783109600,8.957109619140626,-1.0353665458112955,-0.5633639508455991,-0.1212694412790238
2024-12-04 21:49:08.793183500,8.96718359375,-2.2019348749816414,-1.5478081186711787,2.1061054337769747
2024-12-04 21:49:08.803258600,8.977258544921876,-1.5458283430308102,-3.195900319868326,2.6402082188248635
2024-12-04 21:49:08.813332500,8.98733251953125,-0.7967372379124165,-4.158632422101498,1.9950009742900727
2024-12-04 21:49:08.823407600,8.99740771484375,-0.515153754428029,-4.431151724642515,1.8557991320878269
2024-12-04 21:49:08.833481500,9.0074814453125,0.1216957038670778,-3.731874744006991,1.7987794601403175
2024-12-04 21:49:08.843555600,9.0175556640625,-0.0174742818921804,-1.6634224567979574,0.8423026189096271
2024-12-04 21:49:08.853630500,9.02763037109375,-0.1786953559398651,-0.3589426174968481,0.0129394149415194
2024-12-04 21:49:08.863704300,9.037704345703125,0.6479062743604183,-0.2587555656045675,-0.5554825499460101
2024-12-04 21:49:08.873779500,9.047779541015624,2.1386258936315774,-0.2110287687897682,0.1147708730399608
2024-12-04 21:49:08.883853300,9.057853271484374,2.070292362117767,-0.6382090562105178,1.0997945943191647
2024-12-04 21:49:08.893927700,9.067927734375,-1.533896497696638,-1.3138567394554614,1.397512343263626
2024-12-04 21:49:08.904002300,9.078002197265626,-0.7753074963927269,-1.4384820670336484,1.4836001426547765
2024-12-04 21:49:08.914076700,9.08807666015625,-0.4549678735345602,-1.4634972658246754,1.3652356290370224
2024-12-04 21:49:08.924151300,9.0981513671875,0.4189560644328594,-1.1006728384584188,1.220614684395492
2024-12-04 21:49:08.934225700,9.1082255859375,0.8390852642983198,-1.30529875446856,1.5007361325033008
2024-12-04 21:49:08.944299500,9.118299560546877,0.6147761581748724,-1.3351771753817796,1.56469291023761
2024-12-04 21:49:08.954374700,9.128374755859374,0.9346949252724648,0.7339572488725185,0.5104300869069993
2024-12-04 21:49:08.964448500,9.138448486328125,-0.1811708061426878,1.1422691696941851,0.2710213190682232
2024-12-04 21:49:08.974523600,9.148523681640626,-0.2596568983584642,1.1141218103572723,0.0157556414060294
2024-12-04 21:49:08.984597500,9.158597412109376,-0.3543570432722568,1.098369237691164,-0.676681994728744
2024-12-04 21:49:08.994671600,9.168671630859375,-1.0615338372468948,1.0573264486849308,-0.9585774667717516
2024-12-04 21:49:09.004746500,9.17874658203125,-1.389403271088004,0.9629787704706192,-1.014173243395984
2024-12-04 21:49:09.014820600,9.188820556640623,-1.511111834436655,0.5713017581075429,-0.8562547180250286
2024-12-04 21:49:09.024895500,9.1988955078125,-1.9626152467310427,-0.3247819892197847,-0.3416017527259886
2024-12-04 21:49:09.034969600,9.208969482421876,-1.690409832444787,-1.1660510272979736,0.2582375330798327
2024-12-04 21:49:09.045043500,9.21904345703125,-0.8412164311081171,-1.7996251171842217,0.2926758092544972
2024-12-04 21:49:09.055118600,9.22911865234375,-0.5359750086605548,-1.79534787825644,-0.4383844030022621
2024-12-04 21:49:09.065192400,9.2391923828125,-0.4117693677991628,-1.9255492524012925,1.6270684101298452
2024-12-04 21:49:09.075267600,9.249267578125,0.4501128347188234,-1.4418109191954136,0.8301979742918163
2024-12-04 21:49:09.085341400,9.259341552734377,0.4116308361113071,-0.2761827934846282,0.2286801608145237
2024-12-04 21:49:09.095415600,9.26941552734375,-0.6944862392276525,0.2576961196795105,0.1753551786664873
2024-12-04 21:49:09.105490400,9.279490478515624,-1.0825655193597077,0.4287245942533016,-0.0654393444422632
2024-12-04 21:49:09.115564500,9.289564453125,-0.639624183705449,0.2738677945405244,-0.0452962817322462
2024-12-04 21:49:09.125639400,9.299639404296874,-0.2108843918830156,0.280422330750525,-0.1345460522856563
2024-12-04 21:49:09.135713500,9.309713623046877,0.0633031361311674,0.3273167683944106,-0.0770855047028511
2024-12-04 21:49:09.145787400,9.319787353515624,0.162505268639326,0.3942661520734429,-0.1287861735846847
2024-12-04 21:49:09.155862500,9.329862548828125,0.193630474743247,0.4216393121674656,-0.1839820824374444
2024-12-04 21:49:09.165936400,9.339936279296875,0.1441249778181314,0.4781386135026812,-0.2776204068060033
2024-12-04 21:49:09.176011500,9.350011474609374,0.1132435173422098,0.5201327118843794,-0.2042653390694409
2024-12-04 21:49:09.186085400,9.36008544921875,0.1401724408000707,0.4895777068838476,-0.0856272509410046
2024-12-04 21:49:09.196159500,9.370159423828126,0.2585153271079063,0.519838697373867,-0.1753182441895827
2024-12-04 21:49:09.206234400,9.380234375,0.0768617058843374,0.658567076845467,-0.3740448364954442
2024-12-04 21:49:09.216308500,9.39030859375,-0.2132674876272678,0.8931488629192114,-0.5685452259410172
2024-12-04 21:49:09.226382600,9.400382568359374,-0.258204361462593,1.0916288235202432,-0.7521921398736536
2024-12-04 21:49:09.236457500,9.41045751953125,-0.13920388802886,1.0994704769313337,-0.5928819774812087
2024-12-04 21:49:09.246531600,9.420531494140626,-0.0982271499961614,0.8135191536262631,-0.3745451507003978
2024-12-04 21:49:09.256606500,9.4306064453125,0.0373924498051404,0.590764875729382,-0.3847955822862684
2024-12-04 21:49:09.266680600,9.4406806640625,0.1628589043825864,0.6588447247430682,-0.6374834453497081
2024-12-04 21:49:09.276754400,9.45075439453125,0.3946218336433172,0.8173530327007174,-1.0102164685942232
2024-12-04 21:49:09.286829600,9.46082958984375,0.7513806773602962,0.9271835267290472,-1.3436235166877508
2024-12-04 21:49:09.296903700,9.470903564453126,1.28071785544157,0.6099421621471643,-1.2359781116135418
2024-12-04 21:49:09.306978600,9.480978515625,1.308771399015188,0.1482744987130165,-0.7722172752924263
2024-12-04 21:49:09.317052700,9.491052734375,1.0740613103866576,-0.1531692850172519,-0.3346628933735192
2024-12-04 21:49:09.327126500,9.50112646484375,0.6973527345746755,-0.3461693529024719,-0.192235878579691
2024-12-04 21:49:09.337201700,9.51120166015625,0.4705436283290385,-0.3365598130360245,-0.3217588420063257
2024-12-04 21:49:09.347275500,9.521275634765624,0.5826169328480959,-0.1167851354718208,-0.3971089742839336
2024-12-04 21:49:09.357350700,9.5313505859375,0.6318383521348238,-0.0504068296790123,-0.6457170206878334
2024-12-04 21:49:09.367424500,9.541424560546876,0.491579986616969,0.0196454884514212,-0.7724360326096416
2024-12-04 21:49:09.377498400,9.551498291015625,0.6192980195134877,-0.0021846505627036,-0.8438301938030869
2024-12-04 21:49:09.387573500,9.561573486328124,0.7587713721334933,-0.0185407420799136,-0.7685879058141261
2024-12-04 21:49:09.397647400,9.5716474609375,0.8699562033802271,0.0430681573539972,-0.7433166864354163
2024-12-04 21:49:09.407722500,9.581722412109375,0.9502706800669432,0.072835811369121,-0.7414717161558568
2024-12-04 21:49:09.417796400,9.59179638671875,0.8277391098976135,0.0594216185227036,-0.7190836509980261
2024-12-04 21:49:09.427870500,9.601870361328125,0.5054150352239608,-0.0381289473861455,-0.647042204876989
2024-12-04 21:49:09.437945600,9.611945556640626,0.0722486591309309,-0.1369391579672694,-0.5609951758876442
2024-12-04 21:49:09.448019500,9.62201953125,-0.1399473998725414,-0.3501446862742304,-0.2717750600449741
2024-12-04 21:49:09.458094600,9.632094482421875,-0.3151648505687713,-0.4014303446143865,-0.2432369478248059
2024-12-04 21:49:09.468168400,9.64216845703125,-0.5029916074693203,-0.2402408347487449,-0.2895949405044317
2024-12-04 21:49:09.478242300,9.6522421875,-0.6394435664415359,-0.062714522588253,-0.4227305414702743
2024-12-04 21:49:09.488317400,9.6623173828125,-0.6967769805133343,0.1507528715252876,-0.7203092472702264
2024-12-04 21:49:09.498391300,9.672391357421876,-0.3877016789913177,0.2704641235768795,-0.794135019524768
2024-12-04 21:49:09.508466400,9.682466552734375,0.0405593894034624,0.3503945693820715,-0.8027176274962723
2024-12-04 21:49:09.518540300,9.692540283203124,0.1744178247511386,0.4944733699709177,-0.7949627755858003
2024-12-04 21:49:09.528614400,9.702614501953123,0.0205967978268861,0.3609352526187896,-0.7510521760582923
2024-12-04 21:49:09.538689300,9.712689208984376,-0.4281003248751163,0.0588332972407341,-0.7215817514240741
2024-12-04 21:49:09.548763400,9.722763427734376,-0.7331774966716766,-0.3083259444594383,-0.682621175519377
2024-12-04 21:49:09.558838500,9.732838623046876,-0.6642530135273933,-0.405905444201827,-0.5261249380365014
2024-12-04 21:49:09.568912400,9.742912353515624,-0.452722724956274,-0.3026993367493152,-0.4110413457855582
2024-12-04 21:49:09.578986500,9.752986572265623,-0.2876987514942884,-0.1987298437088727,-0.372062065180391
2024-12-04 21:49:09.589061400,9.763061279296876,-0.313639832958579,0.0442331094801425,-0.5585429604299366
2024-12-04 21:49:09.599135500,9.773135498046877,-0.3997790702760219,0.1944692636549472,-0.7935197371706366
2024-12-04 21:49:09.609210400,9.78321044921875,-0.5467798957914114,0.1521025325685739,-0.7671697826445102
2024-12-04 21:49:09.619284500,9.793284423828124,-0.8545657420247793,0.0458656791180372,-0.478284451714158
2024-12-04 21:49:09.629359400,9.803359375,-1.13567634730041,-0.2029185275703668,-0.1275461834609508
2024-12-04 21:49:09.639433500,9.81343359375,-1.0940472828388212,-0.3467109124332666,0.1195274199172854
2024-12-04 21:49:09.649507600,9.823507568359377,-0.980101754707098,-0.4377069421321153,0.274106425601989
2024-12-04 21:49:09.659582500,9.83358251953125,-0.825903126642108,-0.5632797796934843,0.529249499797821
2024-12-04 21:49:09.669656600,9.843656494140625,-0.279803029808402,-0.8629249895691871,0.8082363909177481
2024-12-04 21:49:09.679731700,9.853731689453124,1.7142139018803837,-0.9950994173526764,0.8617569687031209
2024-12-04 21:49:09.689805600,9.8638056640625,1.5617209086894988,-0.8200444637417793,1.0568947792693972
2024-12-04 21:49:09.699879400,9.87387939453125,0.4709656531333923,-0.8962830692917108,1.560569254436344
2024-12-04 21:49:09.709954600,9.88395458984375,0.5316717585086822,-0.9433265600174664,1.2669978115163745
2024-12-04 21:49:09.720028400,9.8940283203125,0.451510426557064,-0.8762322149097919,0.905862067889422
2024-12-04 21:49:09.730103600,9.904103515625,0.3957055372267961,-0.8095774302631616,0.649360710952431
2024-12-04 21:49:09.740177400,9.914177490234374,0.2912812861561775,-0.7497942849516868,0.5249211152046919
2024-12-04 21:49:09.750252500,9.92425244140625,0.262419348809123,-0.7581862657219172,0.5182461674854159
2024-12-04 21:49:09.760326400,9.934326416015624,0.3858943373084068,-0.598280950447917,0.2073126708760857
2024-12-04 21:49:09.770400500,9.944400390625,0.2405693360507488,-0.3699012338846921,-0.0532949523359537
2024-12-04 21:49:09.780475400,9.954475341796876,-0.2001204212844371,-0.1046381860822439,-0.1329632400736212
2024-12-04 21:49:09.790549500,9.964549560546876,-0.3469464747548103,0.1106844805091619,-0.2871276736080646
2024-12-04 21:49:09.800624600,9.974624755859375,-0.4206815730512142,0.204801857098937,-0.4797726444453001
2024-12-04 21:49:09.810698500,9.984698486328124,-0.6450555611044169,-0.3848685013920068,-0.4531926074903458
2024-12-04 21:49:09.820773600,9.994773681640623,-0.6029021805077791,-0.8226824110299349,0.0029901947919279
2024-12-04 21:49:09.830847500,10.004847412109376,-0.7725275102853775,-0.3323109234198927,0.2833858567312359
2024-12-04 21:49:09.840921300,10.01492138671875,-0.5587421362638473,0.0467173275113105,0.3059816828882321
2024-12-04 21:49:09.850996500,10.02499658203125,-0.2352858426898717,0.1601104824572801,0.0571356995426118
2024-12-04 21:49:09.861070300,10.0350703125,-0.0875076030611991,0.2842281527742743,-0.1447447536842897
2024-12-04 21:49:09.871144200,10.045144287109377,0.4501251096785068,0.2836921462014317,-0.3852401842486113
2024-12-04 21:49:09.881218300,10.05521826171875,0.707383714723587,0.2691708688959479,-0.6296442030914128
2024-12-04 21:49:09.891293200,10.065293212890625,0.6818441997975111,0.4075763000234961,-0.7139950956873595
2024-12-04 21:49:09.901367300,10.0753671875,0.6260252819418907,0.5427212680503726,-0.7748674975402653
2024-12-04 21:49:09.911442200,10.085442138671874,0.4298790249854326,0.6520356292501092,-0.8951237431887537
2024-12-04 21:49:09.921516300,10.095516357421875,0.260061972028017,0.6179869369149208,-1.0124545298445968
2024-12-04 21:49:09.931590400,10.10559033203125,0.2063806507229804,0.7518775209665298,-1.125669405614212
2024-12-04 21:49:09.941665300,10.115665283203125,0.1369768596291542,1.089006658323109,-1.284989979802817
2024-12-04 21:49:09.951739400,10.125739501953126,0.0702186146080493,1.4189742334872484,-1.4629760184295475
2024-12-04 21:49:09.961814300,10.135814208984376,0.2502121936649084,0.7413394680783152,-1.2982704632669686
2024-12-04 21:49:09.971888400,10.145888427734375,0.448330627477169,-0.0606596358850598,-0.5383623056558892
2024-12-04 21:49:09.981963500,10.155963623046874,0.4987871415168046,-0.0606029372617602,-0.1848671399099752
2024-12-04 21:49:09.992037400,10.166037353515623,1.13675829731822,0.2015200589492917,-0.2415063977051526
2024-12-04 21:49:10.002112500,10.176112548828126,0.5027987152457237,0.576767914558947,0.226531896739453
2024-12-04 21:49:10.012186400,10.186186279296876,-0.8879524633198976,0.4373150202050805,0.8635227362666279
2024-12-04 21:49:10.022260200,10.19626025390625,-0.8984902239471674,-0.5543173055589199,1.2501350856512785
2024-12-04 21:49:10.032335400,10.20633544921875,-0.4173959755092859,-1.241763855408132,1.0766636749047784
2024-12-04 21:49:10.042409200,10.2164091796875,-0.1287766020387411,-0.5748202876225114,0.7942444712486117
2024-12-04 21:49:10.052484400,10.226484375,-0.4564215794742107,0.0858154121905565,0.4830740971434861
2024-12-04 21:49:10.062558200,10.23655810546875,-0.6903676979929209,0.0530056140005588,0.1040301737191155
2024-12-04 21:49:10.072633300,10.24663330078125,-0.4707289217680692,-0.206799168395996,-0.1641502958999946
2024-12-04 21:49:10.082707200,10.256707275390625,-0.3586678922086954,-0.5857905944481492,0.1365725166119635
2024-12-04 21:49:10.092782300,10.2667822265625,-0.4009112891763448,-0.9074880616560578,0.6320061099171638
2024-12-04 21:49:10.102856400,10.2768564453125,-0.0177250417828559,-0.9669415366217492,0.7026153312779962
2024-12-04 21:49:10.112931300,10.286931396484375,0.2384101121902465,-1.5223065976679324,0.8443873162291944
2024-12-04 21:49:10.123005400,10.29700537109375,0.078220134755969,-1.0091896097645163,0.6492842847153544
2024-12-04 21:49:10.133080300,10.307080322265625,0.1048304937839508,-0.4841311319157481,0.2595947198424488
2024-12-04 21:49:10.143154400,10.317154541015626,0.3029541882932186,-0.2146744318157434,-0.0795776868447661
2024-12-04 21:49:10.153228300,10.327228271484374,0.3356716320246458,-0.054141047771275,-0.2719581432606093
2024-12-04 21:49:10.163303400,10.337303466796875,0.2925824318826198,0.0740419722884893,-0.3438730586588382
2024-12-04 21:49:10.173377300,10.347377197265626,0.3073766809105873,0.2479796123072505,-0.2523412050502374
2024-12-04 21:49:10.183452400,10.357452392578123,0.0553437015593051,0.5445356239959597,-0.3632299394272267
2024-12-04 21:49:10.193526300,10.3675263671875,-0.3835784615814686,0.6457444201514124,-0.5308333714557811
2024-12-04 21:49:10.203601400,10.377601318359376,-0.5259849450439215,0.5430304801300168,-0.4882650533827021
2024-12-04 21:49:10.213675300,10.38767529296875,-0.1573947937577962,0.592620732729137,-0.3510408313963562
2024-12-04 21:49:10.223750400,10.39775048828125,-0.0013864859223365,0.7497200506716967,-0.2176668916299939
2024-12-04 21:49:10.233824300,10.40782421875,-0.3247966022670269,0.4809007716923952,-1.0917685242518782
2024-12-04 21:49:10.243899400,10.4178994140625,-0.9151052586615084,0.5496519440963864,-0.2363236613050103
2024-12-04 21:49:10.253973200,10.42797314453125,-1.092528110447526,1.2777870626866816,0.3701332890748977
2024-12-04 21:49:10.264048400,10.43804833984375,-0.9787608614921568,1.365297880618274,-0.0408216936014592
2024-12-04 21:49:10.274122200,10.448122314453125,-1.1760907752752303,1.0927189568445086,0.2087248757615685
2024-12-04 21:49:10.284197400,10.458197265625,-1.5560077917397022,0.5666434109076858,0.1632449080254882
2024-12-04 21:49:10.294271200,10.468271240234374,-1.28463473662436,0.045597383570671,1.3144808627031743
2024-12-04 21:49:10.304346400,10.478346435546875,-0.8474117786169052,0.3485673539549112,1.1078177417770028
2024-12-04 21:49:10.314420200,10.488420166015626,-0.1423228968322277,0.1965942929849028,0.0260861159581691
2024-12-04 21:49:10.324495400,10.498495361328125,0.3221726835042238,-0.1083335334688425,-0.5470370123576372
2024-12-04 21:49:10.334569200,10.5085693359375,0.3831833247840404,-0.3855506384372711,-0.0580471883643418
2024-12-04 21:49:10.344644400,10.518644287109376,0.7519242827177047,-0.2581590610161423,0.1604987511225044
2024-12-04 21:49:10.354718200,10.52871826171875,0.8405763796389103,-0.2551061031863093,-0.2297080425575375
2024-12-04 21:49:10.364793300,10.53879345703125,0.8078829013049602,-0.238370072440803,-0.6837814514704048
2024-12-04 21:49:10.374867200,10.5488671875,0.8644067525595426,-0.024612463209033,-0.9225883809585124
2024-12-04 21:49:10.384942300,10.5589423828125,1.097764842057228,-0.1211512217268347,-0.1177805031847208
2024-12-04 21:49:10.395016200,10.56901611328125,0.9113871149212122,-0.2200774599030613,0.0134034522566944
2024-12-04 21:49:10.405091300,10.57909130859375,0.548472086662054,-0.3154296389847993,-0.5013403331309557
2024-12-04 21:49:10.415165200,10.589165283203124,0.550788546910882,-0.2919002948373556,-1.0296993868950757
2024-12-04 21:49:10.425240300,10.599240234375,0.5476490798413753,-0.1718146565154194,-0.8391078414563089
2024-12-04 21:49:10.435314200,10.609314208984374,0.3677706515967845,-0.1138648641109466,-0.5414996173009277
2024-12-04 21:49:10.445389300,10.619389404296877,0.1285229195386171,-0.1618555725589394,-0.281248223648034
2024-12-04 21:49:10.455463200,10.629463134765626,-0.0382756623804569,-0.1580059113934636,-0.1957161949761211
2024-12-04 21:49:10.465538300,10.639538330078125,-0.0089841014444828,-0.1486006619274616,-0.2327390808165073
2024-12-04 21:49:10.475612400,10.6496123046875,0.1649374642223119,-0.1824228520303964,-0.2786539328385144
2024-12-04 21:49:10.485687300,10.659687255859374,0.3209533708423376,-0.294676481552422,-0.3202484374433755
2024-12-04 21:49:10.495761400,10.669761474609375,0.5160474883973598,-0.447409420979023,-0.4305548784203827
2024-12-04 21:49:10.505836300,10.679836181640624,0.5036065244972705,-0.4221270956844091,-0.6503535213820636
2024-12-04 21:49:10.515910400,10.689910400390623,0.3420850061982869,-0.302278188727796,-0.7079251281239092
2024-12-04 21:49:10.525985300,10.6999853515625,0.2357172198444604,-0.2902218402311206,-0.6119440765541047
2024-12-04 21:49:10.536059400,10.710059326171876,0.1405231539338827,-0.2892366285860538,-0.5709910847231745
2024-12-04 21:49:10.546134300,10.72013427734375,0.202151634851098,-0.3072185677394271,-0.5254313297491521
2024-12-04 21:49:10.556208400,10.73020849609375,0.2167003846853971,-0.3193082339838147,-0.5039114987932145
2024-12-04 21:49:10.566283300,10.740283203125,-0.0242447989404201,-0.2117588366299867,-0.4995419054068624
2024-12-04 21:49:10.576357400,10.750357421875,-0.3770218795448541,-0.0989309143513441,-0.5308182834845036
2024-12-04 21:49:10.586432300,10.760432373046877,-0.3908785554617643,-0.1657625168696045,-0.4401256937116384
2024-12-04 21:49:10.596507400,10.77050732421875,-0.4724047460258007,-0.2422863691017031,-0.3893943082533777
2024-12-04 21:49:10.606581200,10.780581298828125,-0.4721551551789045,-0.185165136475861,-0.5463537428012117
2024-12-04 21:49:10.616656400,10.790656494140626,-0.2281774719893932,-0.0858569132447242,-0.8335263880621642
2024-12-04 21:49:10.626730200,10.800730224609374,0.1857341685354709,-0.1246753041997551,-0.4811043314404785
2024-12-04 21:49:10.636805400,10.810805419921875,0.3688824122309684,-0.2392383797079324,-0.1134050280468538
2024-12-04 21:49:10.646879200,10.820879150390626,0.2082283244162797,-0.4916162269741296,0.0587338554542511
2024-12-04 21:49:10.656954400,10.830954345703123,-0.048982349833846,-0.3902458105161785,-0.1829156770486384
2024-12-04 21:49:10.667028200,10.8410283203125,-0.0600771598219871,-0.3345248000770807,-0.1646620082817971
2024-12-04 21:49:10.677103400,10.851103271484376,0.0768453392714262,-0.3552197975814342,-0.2300071716345846
2024-12-04 21:49:10.687177200,10.86117724609375,-0.0806043995440006,-0.3287470934584736,-0.2458363897334784
2024-12-04 21:49:10.697252400,10.87125244140625,-0.3425304118782282,-0.2612511818125844,-0.2519899073945358
2024-12-04 21:49:10.707327500,10.881327392578124,-0.5773012907832861,-0.1196504617750644,-0.1061507095370441
2024-12-04 21:49:10.717401300,10.8914013671875,-0.8233996193885803,-0.1401101892188191,0.13729703149423
2024-12-04 21:49:10.727476500,10.9014765625,-0.8480494919985532,-0.2334936985760927,0.2112815014418214
2024-12-04 21:49:10.737550300,10.91155029296875,-0.8105407223373651,-0.3002195026323199,0.090481138979271
2024-12-04 21:49:10.747625500,10.92162548828125,-0.8368196574538945,-0.2458808864623308,-0.0159472184553742
2024-12-04 21:49:10.757699300,10.93169921875,-0.6132844583123922,-0.1797074555918574,-0.0213987618595361
2024-12-04 21:49:10.767774500,10.9417744140625,-0.3190653651386499,-0.1799585077434778,-0.0199464441593736
2024-12-04 21:49:10.777848300,10.951848388671875,-0.2086369052171707,-0.175778591710329,-0.1169311928790062
2024-12-04 21:49:10.787923500,10.96192333984375,-0.1822217765003442,-0.1518175781473517,-0.1997002961762249
2024-12-04 21:49:10.797998000,10.971998046875,-0.3956587754756212,-0.0444575658857822,-0.1118017210360616
2024-12-04 21:49:10.808072400,10.982072509765626,-0.8702315131902694,0.0321706235036253,-0.0398287370413541
2024-12-04 21:49:10.818147000,10.99214697265625,-1.2192355049967765,0.0692325261801481,-0.1780217675272375
2024-12-04 21:49:10.828221400,11.002221435546875,-1.1653835032999516,0.0687953038066625,-0.3201568867024034
2024-12-04 21:49:10.838296000,11.012296142578125,-0.8702367738872766,0.1926142834380269,-0.4770694499012082
2024-12-04 21:49:10.848370400,11.022370361328123,-0.6257347745627164,0.3355921370476484,-0.626585473107919
2024-12-04 21:49:10.858445000,11.032445068359374,-0.2598299168378115,0.4171203734382986,-0.6438068031523376
2024-12-04 21:49:10.868521000,11.04252099609375,0.0509393291205167,0.3383350060150027,-0.5540226334612817
2024-12-04 21:49:10.878594800,11.0525947265625,0.2969026331692934,0.3557134263172745,-0.5031147223923355
2024-12-04 21:49:10.888670000,11.062669921875,0.6161673202723265,0.3416021911174058,-0.4385732035726308
2024-12-04 21:49:10.898744000,11.072744140625,0.6784136408269404,0.2599775086149573,-0.4463216257423162
2024-12-04 21:49:10.908819000,11.08281884765625,0.3896241714864969,0.2613993581116199,-0.3949007967151701
2024-12-04 21:49:10.918894000,11.09289404296875,0.2898299183040857,0.4291252840086818,-0.5561977855432778
2024-12-04 21:49:10.928968000,11.102968017578124,0.4271037150532007,0.6868576440453529,-0.738492992606014
2024-12-04 21:49:10.939043000,11.11304296875,0.6386281584054231,0.7040165763780474,-0.7796454525317996
2024-12-04 21:49:10.949117000,11.123116943359374,0.890262493827939,0.5293061984211206,-0.7620433795414865
2024-12-04 21:49:10.959192000,11.133192138671877,1.1630413240879771,0.6311620603084563,-0.7602215709418058
2024-12-04 21:49:10.969267000,11.143266845703126,1.3019453523874285,0.7431409645423293,-0.8172381010841577
2024-12-04 21:49:10.979341000,11.153341064453125,1.3524287544339897,0.8273512796238064,-0.8553707747973501
2024-12-04 21:49:10.989416000,11.163416015625,1.3133452828019856,1.553962257386744,-0.9639167089078576
2024-12-04 21:49:10.999490000,11.173489990234376,0.6468032815545797,2.20565857167989,-0.9947203549072146
2024-12-04 21:49:11.009565000,11.18356494140625,0.32818507566154,2.381050502160192,-1.3849210111074148
2024-12-04 21:49:11.019640000,11.19364013671875,0.5215940166085958,2.9667355904072523,-2.035585644265264
2024-12-04 21:49:11.029714200,11.203714111328123,0.8852028723508119,3.142234780654311,-2.2083152236685155
2024-12-04 21:49:11.039789000,11.2137890625,1.030391680008173,2.905761189484596,-2.1634404552839697
2024-12-04 21:49:11.049863200,11.22386328125,1.164438915926218,2.529593296420574,-1.672168073311448
2024-12-04 21:49:11.059938000,11.23393798828125,1.3612819229751825,2.18132930932641,-1.2179326787699014
2024-12-04 21:49:11.070013000,11.244012939453125,1.4477420628100632,1.4812538717895745,-0.9929854939386248
2024-12-04 21:49:11.080087000,11.254087158203124,1.3650772236049171,0.9398188441574572,-0.9607003041446208
2024-12-04 21:49:11.090162000,11.264161865234374,1.0028794037044049,0.7683820810437202,-0.8029146844383329
2024-12-04 21:49:11.100236800,11.27423681640625,0.6397615463495254,0.90669106605947,-0.60858417166695
2024-12-04 21:49:11.110311000,11.284310791015624,0.2841442738831043,1.1231260778069496,-0.2450273383729159
2024-12-04 21:49:11.120385800,11.2943857421875,-0.4150461975127458,0.990034535178542,0.4381485484197736
2024-12-04 21:49:11.130460000,11.3044599609375,-1.0572171430915591,0.2961298952311277,1.1674420432649553
2024-12-04 21:49:11.140534800,11.31453466796875,-1.1308511191010475,-0.4355687610596418,1.5011594724819064
2024-12-04 21:49:11.150610000,11.32460986328125,-1.1172796898663044,-1.169263559603691,1.4594995744906365
2024-12-04 21:49:11.160684000,11.33468408203125,-0.926212343609333,-2.071590000712872,1.3668880724191663
2024-12-04 21:49:11.170759000,11.344759033203124,-0.2960071456342935,-2.204942824625969,1.624919999924302
2024-12-04 21:49:11.180834000,11.354833984375,-0.1511772344172,-2.126640856805444,1.1189631129086015
2024-12-04 21:49:11.190908000,11.364907958984375,-0.0614396803468465,-1.676591734972596,0.8169801077350973
2024-12-04 21:49:11.200983000,11.374983154296874,-0.0916331585586071,-1.3185083646535871,1.081044885663688
2024-12-04 21:49:11.211058000,11.385057861328123,-0.0999701942712068,-1.6970535082429647,1.4937699467524883
2024-12-04 21:49:11.221132000,11.395132080078126,-0.1468809985280036,-2.1147849993169308,1.6491145299822092
2024-12-04 21:49:11.231207000,11.40520703125,-0.3995516912609338,-2.5460902577131983,1.972185915891826
2024-12-04 21:49:11.241281000,11.415281005859375,-0.4083037375152111,-2.6562930921852588,2.01136232650429
2024-12-04 21:49:11.251356000,11.42535595703125,-0.1652829166591167,-1.7692396235316992,1.585857863341272
2024-12-04 21:49:11.261431000,11.43543115234375,0.4963742351561784,-1.1570055510550736,1.08188075196594
2024-12-04 21:49:11.271505000,11.4455048828125,0.7935597769200802,-0.8475269294291734,1.3179665128618478
2024-12-04 21:49:11.281580000,11.455580078125,-0.6563724894106387,-0.9624234746754168,1.3251403500139711
2024-12-04 21:49:11.291655200,11.4656552734375,-0.9352835388153792,-1.3157184416741132,1.296544370126724
2024-12-04 21:49:11.301729000,11.47572900390625,-0.7998305277526379,-1.2217962953954935,1.2898472105756402
2024-12-04 21:49:11.311804200,11.48580419921875,-0.4634101231873035,-0.7207230887681245,1.0574269864499568
2024-12-04 21:49:11.321878800,11.495878662109376,0.180726569506526,-0.3339817792415618,0.6844695798650383
2024-12-04 21:49:11.331953200,11.505953125,0.7099456741660833,0.1622010249957442,0.383473978293687
2024-12-04 21:49:11.342027800,11.51602783203125,0.624450579971075,0.5768211060509085,-0.0351394101813435
2024-12-04 21:49:11.352103000,11.52610302734375,0.6287783800423145,0.8245148871541023,-0.4022504288256168
2024-12-04 21:49:11.362176800,11.5361767578125,0.4880313542246818,0.9627037529215215,-0.690003833116591
2024-12-04 21:49:11.372252000,11.546251953125,0.333007965773344,1.1283373827144505,-0.7924328187167644
2024-12-04 21:49:11.382327000,11.5563271484375,0.3292833922922611,1.0875479839473965,-0.8989449819773435
2024-12-04 21:49:11.392401000,11.56640087890625,0.4914169050097465,0.7680819290533661,-0.7488175488740205
2024-12-04 21:49:11.402476000,11.57647607421875,0.5936433537751435,0.1919461749181151,-0.1527491599090397
2024-12-04 21:49:11.412551000,11.586551025390625,0.7237187634527683,-0.6607631255850196,0.6088757019594311
2024-12-04 21:49:11.422625000,11.596625,1.0994716459751128,-1.2238459214016797,1.089740963947028
2024-12-04 21:49:11.432700000,11.606699951171874,1.2264660407721997,-1.5023326079145074,0.9440244791537524
2024-12-04 21:49:11.442775000,11.616775146484375,1.2129670922517777,-1.4083596082314849,1.0233204264476894
2024-12-04 21:49:11.452849000,11.626848876953124,0.7251315528601407,-1.2475929999530315,0.9396763669468462
2024-12-04 21:49:11.462924000,11.636924072265623,0.7771078238129615,-1.131652206350863,0.4643636245198547
2024-12-04 21:49:11.472999200,11.646999267578124,0.6129127023905515,-0.922528978921473,0.1100198791205882
2024-12-04 21:49:11.483073000,11.657072998046877,-0.2666366742432117,-0.9760440037488936,0.1001046343058347
2024-12-04 21:49:11.493148200,11.667148193359376,-0.9276929375559092,-1.2808984727054833,-0.0068724430527538
2024-12-04 21:49:11.503223000,11.67722314453125,-1.2705939363121983,-1.2877481924697756,-0.2475059303808957
