time,seconds_elapsed,z,y,x
2024-12-04 21:56:10.031636700,0.03163671875,0.184282585978508,0.1309154033660888,0.1900635212659835
2024-12-04 21:56:10.041671700,0.041671630859375,0.1872784048318863,0.0658753812313079,0.2356053590774536
2024-12-04 21:56:10.051707000,0.051706787109375,0.2049279659986496,0.0477520413696765,0.2539356350898742
2024-12-04 21:56:10.061741800,0.061741943359375,0.225870668888092,0.0681548342108726,0.2507003843784332
2024-12-04 21:56:10.071776800,0.07177685546875,0.2437133193016052,0.1249595284461975,0.2512995898723602
2024-12-04 21:56:10.081811700,0.081811767578125,0.2484948337078094,0.2066381722688675,0.2574702203273773
2024-12-04 21:56:10.091845600,0.091845703125,0.2403692603111267,0.2849633693695068,0.2764622867107391
2024-12-04 21:56:10.101880800,0.101880859375,0.2271523177623748,0.3272038698196411,0.3078863620758056
2024-12-04 21:56:10.111915800,0.111915771484375,0.2041050493717193,0.3014364540576935,0.3517121374607086
2024-12-04 21:56:10.121951000,0.121950927734375,0.1642912924289703,0.1943382620811462,0.4144501984119415
2024-12-04 21:56:10.131985700,0.131985595703125,0.0966544672846794,0.0084560178220272,0.4878996312618255
2024-12-04 21:56:10.142020600,0.1420205078125,0.0067093945108354,-0.1842050403356552,0.5499880313873291
2024-12-04 21:56:10.152055800,0.152055908203125,-0.0851542130112648,-0.3213719427585602,0.5785008668899536
2024-12-04 21:56:10.162089700,0.16208984375,-0.1647726446390152,-0.3642520308494568,0.5710307955741882
2024-12-04 21:56:10.172125000,0.172125,-0.2339871376752853,-0.3509886860847473,0.5381942987442017
2024-12-04 21:56:10.182159600,0.18215966796875,-0.2997858226299286,-0.3222176134586334,0.5052852630615234
2024-12-04 21:56:10.192194800,0.19219482421875,-0.3463400304317474,-0.2840465009212494,0.4600909352302551
2024-12-04 21:56:10.202229800,0.202229736328125,-0.3667182922363281,-0.2204914987087249,0.3919565975666046
2024-12-04 21:56:10.212264700,0.2122646484375,-0.3584276139736175,-0.1374104619026184,0.2963360548019409
2024-12-04 21:56:10.222300000,0.2222998046875,-0.3266763389110565,-0.0395291820168495,0.1816414296627044
2024-12-04 21:56:10.232333600,0.23233349609375,-0.2853456735610962,0.054994661360979,0.0660360008478164
2024-12-04 21:56:10.242368800,0.24236865234375,-0.2601683437824249,0.1036686301231384,-0.0184461511671543
2024-12-04 21:56:10.252403700,0.25240380859375,-0.2719661593437195,0.0938476920127868,-0.0629872530698776
2024-12-04 21:56:10.262438700,0.262438720703125,-0.3104473352432251,0.0454513244330883,-0.0694557204842567
2024-12-04 21:56:10.272473900,0.272473876953125,-0.3555564880371094,-0.0270582940429449,-0.0602313317358493
2024-12-04 21:56:10.282508800,0.2825087890625,-0.3881498575210571,-0.0843613445758819,-0.0436067841947078
2024-12-04 21:56:10.292543700,0.292543701171875,-0.3988198041915893,-0.097368486225605,-0.0338678732514381
2024-12-04 21:56:10.302577700,0.30257763671875,-0.3974370658397674,-0.0442324690520763,-0.0302715376019477
2024-12-04 21:56:10.312612900,0.31261279296875,-0.3958300948143005,0.0825142934918403,-0.031635608524084
2024-12-04 21:56:10.322647800,0.322647705078125,-0.4027146995067596,0.2565570771694183,-0.0341227650642395
2024-12-04 21:56:10.332682800,0.332682861328125,-0.4279694557189941,0.413114458322525,-0.0181073136627674
2024-12-04 21:56:10.342717700,0.3427177734375,-0.4720522165298462,0.4825191795825958,0.0224885810166597
2024-12-04 21:56:10.352752600,0.352752685546875,-0.526095449924469,0.4496525824069977,0.0867131128907203
2024-12-04 21:56:10.362787800,0.362787841796875,-0.5707177519798279,0.3200283944606781,0.1750834435224533
2024-12-04 21:56:10.372821800,0.37282177734375,-0.6107799410820007,0.1391001492738723,0.2797150611877441
2024-12-04 21:56:10.382857000,0.38285693359375,-0.6468123197555542,-0.0303381793200969,0.3762838840484619
2024-12-04 21:56:10.392892000,0.392891845703125,-0.6817556619644165,-0.1364563703536987,0.4286085963249206
2024-12-04 21:56:10.402926600,0.402926513671875,-0.7135531902313232,-0.1771923750638961,0.4452148377895355
2024-12-04 21:56:10.412961800,0.4129619140625,-0.7290530800819397,-0.1488928347826004,0.4273495674133301
2024-12-04 21:56:10.422996700,0.422996826171875,-0.7290773391723633,-0.0768201202154159,0.3759636878967285
2024-12-04 21:56:10.433031000,0.433031005859375,-0.7119449377059937,-0.0117060961201787,0.3246360421180725
2024-12-04 21:56:10.443065900,0.44306591796875,-0.6884036660194397,-0.0051942337304353,0.2863605618476867
2024-12-04 21:56:10.453100800,0.453100830078125,-0.658501386642456,-0.0472793690860271,0.2738551497459411
2024-12-04 21:56:10.463135700,0.4631357421875,-0.6323941946029663,-0.0918865576386451,0.2740763425827026
2024-12-04 21:56:10.473170700,0.473170654296875,-0.6259836554527283,-0.1142587065696716,0.2788098454475403
2024-12-04 21:56:10.483206000,0.483205810546875,-0.6256988048553467,-0.1158275008201599,0.2762005031108856
2024-12-04 21:56:10.493240800,0.49324072265625,-0.6144543886184692,-0.1081472039222717,0.2585935592651367
2024-12-04 21:56:10.503274800,0.503274658203125,-0.5956926941871643,-0.1129496023058891,0.2396003901958465
2024-12-04 21:56:10.513309700,0.513309814453125,-0.5720416903495789,-0.1405732482671737,0.2240922749042511
2024-12-04 21:56:10.523344600,0.5233447265625,-0.5491049289703369,-0.1667037606239318,0.2071422338485717
2024-12-04 21:56:10.533379800,0.5333798828125,-0.5282459855079651,-0.1648736447095871,0.182597205042839
2024-12-04 21:56:10.543414800,0.543414794921875,-0.5085785984992981,-0.1482684016227722,0.1476560086011886
2024-12-04 21:56:10.553450000,0.553449951171875,-0.485181987285614,-0.1303709000349044,0.0988360047340393
2024-12-04 21:56:10.563484700,0.563484619140625,-0.4469437003135681,-0.1216077432036399,0.033250093460083
2024-12-04 21:56:10.573519600,0.57351953125,-0.3915353119373321,-0.1279010474681854,-0.0361750535666942
2024-12-04 21:56:10.583553800,0.5835537109375,-0.3478458225727081,-0.1477749794721603,-0.090106762945652
2024-12-04 21:56:10.593588700,0.593588623046875,-0.3243807256221771,-0.1881783306598663,-0.1203568130731582
2024-12-04 21:56:10.603624000,0.6036240234375,-0.319963663816452,-0.2149643152952194,-0.1287955343723297
2024-12-04 21:56:10.613658600,0.61365869140625,-0.3203000128269195,-0.2172050923109054,-0.1170230284333229
2024-12-04 21:56:10.623693800,0.62369384765625,-0.333914965391159,-0.1987233161926269,-0.0922679007053375
2024-12-04 21:56:10.633728800,0.633728759765625,-0.3463428616523742,-0.1601074934005737,-0.0554004348814487
2024-12-04 21:56:10.643763700,0.643763671875,-0.3545077741146087,-0.1123226955533027,-0.0109652476385235
2024-12-04 21:56:10.653798000,0.6537978515625,-0.3579608201980591,-0.1112643554806709,0.0586298108100891
2024-12-04 21:56:10.663832600,0.66383251953125,-0.3756396174430847,-0.1453655958175659,0.1429369151592254
2024-12-04 21:56:10.673867800,0.67386767578125,-0.4032483398914337,-0.1798274368047714,0.2246109992265701
2024-12-04 21:56:10.683902700,0.68390283203125,-0.4329165816307068,-0.1823629289865493,0.2764838933944702
2024-12-04 21:56:10.693937700,0.693937744140625,-0.4620504975318908,-0.1515291184186935,0.3061065077781677
2024-12-04 21:56:10.703972900,0.703972900390625,-0.4783961474895477,-0.0983541011810302,0.3100861310958862
2024-12-04 21:56:10.714007800,0.7140078125,-0.4821618497371673,-0.0504212006926536,0.2955537736415863
2024-12-04 21:56:10.724041700,0.724041748046875,-0.4700439572334289,-0.0044713262468576,0.2660149335861206
2024-12-04 21:56:10.734076700,0.73407666015625,-0.4483160078525543,0.0255677998065948,0.2309011816978454
2024-12-04 21:56:10.744111900,0.74411181640625,-0.4327861666679382,0.025447404012084,0.2043641507625579
2024-12-04 21:56:10.754146300,0.754146240234375,-0.4195939302444458,0.0063839638605713,0.1838511526584625
2024-12-04 21:56:10.764181200,0.76418115234375,-0.4173556864261627,-0.023819787427783,0.1752201318740844
2024-12-04 21:56:10.774216200,0.77421630859375,-0.4092021584510803,-0.0524287931621074,0.1757769882678985
2024-12-04 21:56:10.784251100,0.784251220703125,-0.4015341401100158,-0.0529492162168026,0.1686771512031555
2024-12-04 21:56:10.794285300,0.794285400390625,-0.3840121328830719,-0.0348951146006584,0.1567824184894561
2024-12-04 21:56:10.804320300,0.8043203125,-0.3568228483200073,-0.0049196393229067,0.1403387188911438
2024-12-04 21:56:10.814355200,0.814355224609375,-0.3226726055145263,0.0227689780294895,0.1283289343118667
2024-12-04 21:56:10.824390100,0.82439013671875,-0.2739903032779693,0.0546161867678165,0.1111155375838279
2024-12-04 21:56:10.834425000,0.834425048828125,-0.2160875797271728,0.09775061160326,0.0928228124976158
2024-12-04 21:56:10.844460300,0.844460205078125,-0.1551248431205749,0.1311407387256622,0.0828552171587944
2024-12-04 21:56:10.854495200,0.8544951171875,-0.0996232256293296,0.1126986220479011,0.0773320868611335
2024-12-04 21:56:10.864529200,0.864529052734375,-0.0608557052910327,0.0493358373641967,0.0879505649209022
2024-12-04 21:56:10.874564000,0.874564208984375,-0.0378212258219718,-0.0210195519030094,0.1059021353721618
2024-12-04 21:56:10.884599300,0.884599365234375,-0.026662578806281,-0.05243606492877,0.1225074827671051
2024-12-04 21:56:10.894634200,0.89463427734375,-0.0223549157381057,-0.0324232093989849,0.1239730194211006
2024-12-04 21:56:10.904669200,0.904669189453125,-0.0118279363960027,0.0391599163413047,0.107841745018959
2024-12-04 21:56:10.914704400,0.914704345703125,0.0154881067574024,0.125692144036293,0.0837923362851142
2024-12-04 21:56:10.924739000,0.924739013671875,0.0405378863215446,0.1847438663244247,0.057199627161026
2024-12-04 21:56:10.934773200,0.934773193359375,0.0580851882696151,0.2086305618286132,0.032878577709198
2024-12-04 21:56:10.944808200,0.94480810546875,0.0762305632233619,0.2070643454790115,0.0068241357803344
2024-12-04 21:56:10.954843400,0.954843505859375,0.0978631526231765,0.201798215508461,-0.036009881645441
2024-12-04 21:56:10.964878300,0.96487841796875,0.1261586099863052,0.194317951798439,-0.1036659851670265
2024-12-04 21:56:10.974913000,0.9749130859375,0.1697827875614166,0.1739410459995269,-0.1939034759998321
2024-12-04 21:56:10.984948200,0.9849482421875,0.2219898849725723,0.1222584918141365,-0.28779998421669
2024-12-04 21:56:10.994983200,0.994983154296875,0.2790198922157287,0.0382610596716403,-0.3799203336238861
2024-12-04 21:56:11.005018000,1.00501806640625,0.3460052013397217,-0.029639508575201,-0.4659440517425537
2024-12-04 21:56:11.015052300,1.01505224609375,0.4255833923816681,-0.0588418692350387,-0.5503177642822266
2024-12-04 21:56:11.025087200,1.025087158203125,0.5005626678466797,-0.034715250134468,-0.6369391083717346
2024-12-04 21:56:11.035122200,1.0351220703125,0.5737623572349548,0.0125763677060604,-0.729418158531189
2024-12-04 21:56:11.045157000,1.0451572265625,0.6348724365234375,0.0468255616724491,-0.8184357285499573
2024-12-04 21:56:11.055192300,1.0551923828125,0.6751199960708618,0.058384746313095,-0.8733066916465759
2024-12-04 21:56:11.065227300,1.065227294921875,0.6900061368942261,0.0538485832512378,-0.8841851949691772
2024-12-04 21:56:11.075262200,1.07526220703125,0.6779486536979675,0.0425732918083667,-0.8282058238983154
2024-12-04 21:56:11.085296000,1.085296142578125,0.6475076079368591,0.0252625606954097,-0.728408932685852
2024-12-04 21:56:11.095331000,1.0953310546875,0.6107336282730103,0.031288493424654,-0.5897330641746521
2024-12-04 21:56:11.105366300,1.1053662109375,0.5670689344406128,0.076817512512207,-0.4407605230808258
2024-12-04 21:56:11.115401200,1.115401123046875,0.522288978099823,0.1495106220245361,-0.2858391106128692
2024-12-04 21:56:11.125436400,1.1254365234375,0.478569746017456,0.2250614166259765,-0.1547118723392486
2024-12-04 21:56:11.135471000,1.13547119140625,0.4385464191436767,0.2507793009281158,-0.0596370324492454
2024-12-04 21:56:11.145506000,1.145506103515625,0.4336448907852173,0.2275023013353347,-0.0090631004422903
2024-12-04 21:56:11.155541200,1.155541259765625,0.4570868611335754,0.1878542155027389,0.0048710913397371
2024-12-04 21:56:11.165575200,1.1655751953125,0.5014118552207947,0.1430624425411224,-0.0060466057620942
2024-12-04 21:56:11.175610400,1.1756103515625,0.5463929176330566,0.0827860534191131,-0.0188942272216081
2024-12-04 21:56:11.185645300,1.185645263671875,0.5787069797515869,0.00650175800547,-0.0282412283122539
2024-12-04 21:56:11.195680300,1.19568017578125,0.6016045808792114,-0.0850603803992271,-0.0285488255321979
2024-12-04 21:56:11.205715200,1.205715087890625,0.6158123016357422,-0.1664983183145523,-0.0399263240396976
2024-12-04 21:56:11.215750100,1.215750244140625,0.6213125586509705,-0.193547248840332,-0.0593942999839782
2024-12-04 21:56:11.225785300,1.225785400390625,0.63609778881073,-0.1506679356098175,-0.1012122482061386
2024-12-04 21:56:11.235819300,1.2358193359375,0.648202121257782,-0.0546791031956672,-0.1546650826930999
2024-12-04 21:56:11.245854200,1.245854248046875,0.6657116413116455,0.0546626299619674,-0.2099393904209137
2024-12-04 21:56:11.255889200,1.25588916015625,0.6678624153137207,0.1254193633794784,-0.2494303435087204
2024-12-04 21:56:11.265924000,1.265924072265625,0.6651806831359863,0.1420564651489257,-0.2690099477767944
2024-12-04 21:56:11.275959300,1.275959228515625,0.6609241366386414,0.1095275580883026,-0.2689399123191833
2024-12-04 21:56:11.285994200,1.285994140625,0.6462560892105103,0.0367954410612583,-0.2616332769393921
2024-12-04 21:56:11.296029400,1.296029541015625,0.62086421251297,-0.0290038120001554,-0.244102194905281
2024-12-04 21:56:11.306064100,1.306064208984375,0.5940847992897034,-0.0678629800677299,-0.2175827324390411
2024-12-04 21:56:11.316098300,1.316098388671875,0.5676577091217041,-0.0786418542265892,-0.1944110989570617
2024-12-04 21:56:11.326133200,1.32613330078125,0.5421366691589355,-0.0601589046418666,-0.1666668653488159
2024-12-04 21:56:11.336168200,1.336168212890625,0.5185649991035461,-0.0267018787562847,-0.133729949593544
2024-12-04 21:56:11.346203400,1.346203369140625,0.4935068190097809,0.0041310526430606,-0.0914522334933281
2024-12-04 21:56:11.356238000,1.356238037109375,0.4699061512947082,0.0294696986675262,-0.0459782257676124
2024-12-04 21:56:11.366273300,1.366273193359375,0.4505828619003296,0.0440934039652347,-0.0021194708533585
2024-12-04 21:56:11.376308200,1.37630810546875,0.4406668543815613,0.0544906519353389,0.0368614830076694
2024-12-04 21:56:11.386343200,1.38634326171875,0.4371745586395263,0.0589741840958595,0.0686424449086189
2024-12-04 21:56:11.396377300,1.39637744140625,0.4445395469665527,0.0617161728441715,0.0866976156830787
2024-12-04 21:56:11.406412000,1.406412109375,0.4485747814178467,0.0560555234551429,0.0892035886645317
2024-12-04 21:56:11.416447200,1.416447265625,0.4422633647918701,0.0434121675789356,0.0939480066299438
2024-12-04 21:56:11.426482200,1.426482177734375,0.4297384321689605,0.0354356095194816,0.0950649306178093
2024-12-04 21:56:11.436517000,1.43651708984375,0.4171488583087921,0.0377751961350441,0.0901524648070335
2024-12-04 21:56:11.446552300,1.44655224609375,0.396611601114273,0.0462758392095565,0.0967052355408668
2024-12-04 21:56:11.456587300,1.456587158203125,0.3726157248020172,0.0380301587283611,0.1077344492077827
2024-12-04 21:56:11.466622200,1.466622314453125,0.353530079126358,0.0274251494556665,0.1215141788125038
2024-12-04 21:56:11.476656000,1.47665625,0.3397575318813324,0.0134840328246355,0.1240252703428268
2024-12-04 21:56:11.486691300,1.48669140625,0.3299204707145691,-0.0028414549306035,0.120979718863964
2024-12-04 21:56:11.496726300,1.496726318359375,0.3166789710521698,-0.0169279798865318,0.1127308383584022
2024-12-04 21:56:11.506761200,1.50676123046875,0.299214243888855,-0.0325046442449092,0.099002718925476
2024-12-04 21:56:11.516796200,1.516796142578125,0.2774066925048828,-0.0481504499912261,0.0836778208613395
2024-12-04 21:56:11.526831000,1.5268310546875,0.2482338845729828,-0.0707281529903411,0.0705394968390464
2024-12-04 21:56:11.536866300,1.5368662109375,0.2142519503831863,-0.0935533046722412,0.0659372881054878
2024-12-04 21:56:11.546901200,1.5469013671875,0.1748726367950439,-0.1018594354391098,0.0663731694221496
2024-12-04 21:56:11.556935400,1.556935302734375,0.1386533826589584,-0.10578653216362,0.0743988677859306
2024-12-04 21:56:11.566970000,1.56697021484375,0.1079050675034523,-0.1142271161079406,0.0870058611035347
2024-12-04 21:56:11.577005000,1.577005126953125,0.0848210528492927,-0.1298942267894745,0.09949741512537
2024-12-04 21:56:11.587040300,1.587040283203125,0.0729965716600418,-0.1389352679252624,0.1158302128314971
2024-12-04 21:56:11.597075200,1.5970751953125,0.0687043517827987,-0.131403848528862,0.1262876391410827
2024-12-04 21:56:11.607110100,1.607110107421875,0.0532276257872581,-0.1174686178565025,0.1300490796566009
2024-12-04 21:56:11.617145300,1.617145263671875,0.0321689434349536,-0.1214505806565284,0.1412271708250045
2024-12-04 21:56:11.627180300,1.62718017578125,-3.63620929419e-05,-0.1324126571416854,0.1442972719669342
2024-12-04 21:56:11.637214200,1.637214111328125,-0.0365259312093257,-0.1494185328483581,0.1403983980417251
2024-12-04 21:56:11.647249200,1.647249267578125,-0.0770270824432373,-0.1485937684774398,0.1283543407917022
2024-12-04 21:56:11.657284400,1.657284423828125,-0.1249719709157943,-0.1338001638650894,0.1065758168697357
2024-12-04 21:56:11.667319300,1.6673193359375,-0.178367406129837,-0.1079256013035774,0.0771969631314277
2024-12-04 21:56:11.677354200,1.677354248046875,-0.2190935313701629,-0.0691435858607292,0.0504649467766284
2024-12-04 21:56:11.687389200,1.68738916015625,-0.250528484582901,-0.0201316569000482,0.0217511188238859
2024-12-04 21:56:11.697424100,1.697424072265625,-0.2534765899181366,0.0588433220982551,-0.0214474834501743
2024-12-04 21:56:11.707459300,1.707459228515625,-0.2439954578876495,0.1507043689489364,-0.0833460167050361
2024-12-04 21:56:11.717493200,1.7174931640625,-0.2255482673645019,0.2417956739664077,-0.1544702649116516
2024-12-04 21:56:11.727528400,1.727528564453125,-0.2035537660121917,0.2990324795246124,-0.2299054563045501
2024-12-04 21:56:11.737563100,1.737563232421875,-0.1900949478149414,0.30048468708992,-0.2866747379302978
2024-12-04 21:56:11.747597800,1.747597900390625,-0.2018915116786956,0.2373894304037094,-0.3076363205909729
2024-12-04 21:56:11.757633000,1.757633056640625,-0.2300861328840255,0.1334758102893829,-0.2998763918876648
2024-12-04 21:56:11.767668000,1.76766796875,-0.2700508534908294,0.0291946306824684,-0.2738908231258392
2024-12-04 21:56:11.777703000,1.777702880859375,-0.3256741464138031,-0.0512285716831684,-0.2389352321624755
2024-12-04 21:56:11.787737900,1.78773779296875,-0.3893083333969116,-0.0869750827550888,-0.2111507952213287
2024-12-04 21:56:11.797772000,1.79777197265625,-0.4613036811351776,-0.0823236033320427,-0.1883805096149444
2024-12-04 21:56:11.807807000,1.807806884765625,-0.5359964370727539,-0.0573904663324356,-0.1705313175916671
2024-12-04 21:56:11.817842000,1.817842041015625,-0.6021499037742615,-0.025477010756731,-0.1483133733272552
2024-12-04 21:56:11.827876900,1.827876953125,-0.6444021463394165,-0.0170086808502674,-0.1189246624708175
2024-12-04 21:56:11.837911800,1.837911865234375,-0.6721887588500977,-0.0414663515985012,-0.0787985473871231
2024-12-04 21:56:11.847947000,1.847947021484375,-0.6934671401977539,-0.0864544808864593,-0.0364150591194629
2024-12-04 21:56:11.857982000,1.85798193359375,-0.712276816368103,-0.1336044073104858,0.0166074112057685
2024-12-04 21:56:11.868017000,1.868016845703125,-0.7417930960655212,-0.1712003350257873,0.0599798671901226
2024-12-04 21:56:11.878050800,1.87805078125,-0.7721318006515503,-0.1936087012290954,0.0988463014364242
2024-12-04 21:56:11.888085800,1.888085693359375,-0.7972236275672913,-0.1913988441228866,0.1326460540294647
2024-12-04 21:56:11.898121000,1.898120849609375,-0.8135850429534912,-0.1688266843557357,0.1518698185682296
2024-12-04 21:56:11.908156000,1.908156005859375,-0.8232183456420898,-0.1535629481077194,0.1721169203519821
2024-12-04 21:56:11.918190800,1.91819091796875,-0.8300642967224121,-0.149877667427063,0.1974230706691742
2024-12-04 21:56:11.928226000,1.92822607421875,-0.8380165100097656,-0.1664783209562301,0.2214942574501037
2024-12-04 21:56:11.938260700,1.9382607421875,-0.8500771522521973,-0.1926228404045105,0.2413976639509201
2024-12-04 21:56:11.948296000,1.9482958984375,-0.858201265335083,-0.2116410136222839,0.2479342967271804
2024-12-04 21:56:11.958331000,1.958330810546875,-0.8594369292259216,-0.2167092710733413,0.2323228418827057
2024-12-04 21:56:11.968365000,1.968364990234375,-0.851942777633667,-0.2034599334001541,0.1838197410106659
2024-12-04 21:56:11.978400000,1.97839990234375,-0.8221209645271301,-0.1710737645626068,0.1076216399669647
2024-12-04 21:56:11.988434700,1.9884345703125,-0.775057315826416,-0.1325329095125198,0.0193107649683952
2024-12-04 21:56:11.998470000,1.998469970703125,-0.7122945785522461,-0.1034714356064796,-0.0766439884901046
2024-12-04 21:56:12.008504800,2.0085048828125,-0.6438485980033875,-0.0891748219728469,-0.1402489989995956
2024-12-04 21:56:12.018540000,2.0185400390625,-0.5807039737701416,-0.0926587730646133,-0.1697869151830673
2024-12-04 21:56:12.028575000,2.028574951171875,-0.5235098004341125,-0.1039571315050125,-0.16194748878479
2024-12-04 21:56:12.038610000,2.03860986328125,-0.4695677161216736,-0.1082402914762497,-0.1391553580760955
2024-12-04 21:56:12.048643800,2.048643798828125,-0.4287515878677368,-0.0930976048111915,-0.102047249674797
2024-12-04 21:56:12.058678800,2.0586787109375,-0.4098931849002838,-0.0789306536316871,-0.0572789832949638
2024-12-04 21:56:12.068714000,2.0687138671875,-0.4066470861434936,-0.0798972770571708,-0.0047829472459852
2024-12-04 21:56:12.078749000,2.0787490234375,-0.4120948612689972,-0.0952128544449806,0.046849887818098
2024-12-04 21:56:12.088784000,2.088783935546875,-0.4265206456184387,-0.1282781511545181,0.0945083796977996
2024-12-04 21:56:12.098818800,2.09881884765625,-0.4478813111782074,-0.158245101571083,0.1391120702028274
2024-12-04 21:56:12.108853800,2.108853759765625,-0.4683780670166015,-0.1854760944843292,0.175990954041481
2024-12-04 21:56:12.118889000,2.118888916015625,-0.477865070104599,-0.2121306210756302,0.2051562964916229
2024-12-04 21:56:12.128923000,2.1289228515625,-0.482999324798584,-0.2275813519954681,0.2297365516424179
2024-12-04 21:56:12.138958000,2.1389580078125,-0.4741888046264648,-0.2397770434617996,0.2517654299736023
2024-12-04 21:56:12.148992800,2.14899267578125,-0.4654600918292999,-0.2418073117733001,0.2643722295761108
2024-12-04 21:56:12.159027700,2.15902783203125,-0.4570791125297546,-0.2343400716781616,0.2761811912059784
2024-12-04 21:56:12.169063000,2.16906298828125,-0.4577062726020813,-0.2287997752428054,0.2914616763591766
2024-12-04 21:56:12.179097900,2.179097900390625,-0.4488067626953125,-0.211869791150093,0.3053079843521118
2024-12-04 21:56:12.189133000,2.189133056640625,-0.4254711270332336,-0.1747281849384308,0.3088239729404449
2024-12-04 21:56:12.199168000,2.19916796875,-0.3910875916481018,-0.1286533772945404,0.3140818774700165
2024-12-04 21:56:12.209203000,2.209202880859375,-0.3550237715244293,-0.1034943535923957,0.3179903030395508
2024-12-04 21:56:12.219236900,2.21923681640625,-0.3244117796421051,-0.0930688753724098,0.3226300477981567
2024-12-04 21:56:12.229271800,2.229271728515625,-0.293757289648056,-0.0741926506161689,0.3194626867771148
2024-12-04 21:56:12.239307000,2.23930712890625,-0.2587042450904846,-0.0361861437559127,0.2965427339076996
2024-12-04 21:56:12.249342000,2.249342041015625,-0.2266605645418167,0.020470168441534,0.2538036704063415
2024-12-04 21:56:12.259377000,2.259376953125,-0.1908921897411346,0.078598715364933,0.1944553852081298
2024-12-04 21:56:12.269411800,2.269411865234375,-0.1586152166128158,0.1224088817834854,0.1427499204874038
2024-12-04 21:56:12.279446800,2.27944677734375,-0.1340443640947342,0.143846794962883,0.1064981818199157
2024-12-04 21:56:12.289482000,2.28948193359375,-0.1125800013542175,0.1341419219970703,0.0816223472356796
2024-12-04 21:56:12.299517000,2.299516845703125,-0.0970971807837486,0.1214554160833358,0.065098762512207
2024-12-04 21:56:12.309551000,2.309551025390625,-0.0883238092064857,0.1087435185909271,0.0491487830877304
2024-12-04 21:56:12.319585800,2.319585693359375,-0.0798110142350196,0.0972637012600898,0.0294435210525989
2024-12-04 21:56:12.329620700,2.329620849609375,-0.0731027647852897,0.0731360763311386,0.0045562461018562
2024-12-04 21:56:12.339656000,2.339656005859375,-0.060494564473629,0.0395871698856353,-0.0096362717449665
2024-12-04 21:56:12.349691000,2.34969091796875,-0.0455889776349067,0.0128648038953542,-0.0251298192888498
2024-12-04 21:56:12.359726000,2.35972607421875,-0.0346830673515796,0.005339509807527,-0.030442027375102
2024-12-04 21:56:12.369761000,2.369760986328125,-0.0241045113652944,0.021816337481141,-0.0343146249651908
2024-12-04 21:56:12.379795700,2.379795654296875,-0.0139312352985143,0.071886159479618,-0.0359005369246006
2024-12-04 21:56:12.389831000,2.389830810546875,-0.0050621554255485,0.1439767628908157,-0.0386542193591594
2024-12-04 21:56:12.399864800,2.39986474609375,0.0019629970192909,0.1944130361080169,-0.0278774723410606
2024-12-04 21:56:12.409900000,2.409900146484375,0.0033558853901922,0.2122018188238144,-0.0185242444276809
2024-12-04 21:56:12.419935000,2.41993505859375,-0.0039323871023952,0.1959437429904937,0.0021322974935173
2024-12-04 21:56:12.429969700,2.4299697265625,0.0006159550976008,0.1758972853422165,0.0097827417775988
2024-12-04 21:56:12.440004900,2.4400048828125,0.0239452458918094,0.1688697338104248,-0.0061871702782809
2024-12-04 21:56:12.450039800,2.450039794921875,0.0611932799220085,0.1733238250017166,-0.0539292432367801
2024-12-04 21:56:12.460075000,2.460074951171875,0.1110503152012825,0.1780211180448532,-0.1353676319122314
2024-12-04 21:56:12.470110000,2.47010986328125,0.1718907505273819,0.1777866184711456,-0.2453663945198059
2024-12-04 21:56:12.480145000,2.480144775390625,0.2373227477073669,0.1775248348712921,-0.3676435649394989
2024-12-04 21:56:12.490178800,2.4901787109375,0.3087114691734314,0.1974312961101532,-0.4921950101852417
2024-12-04 21:56:12.500213800,2.5002138671875,0.386114090681076,0.2606683373451233,-0.6107829213142395
2024-12-04 21:56:12.510249000,2.5102490234375,0.4554705619812011,0.3495879471302032,-0.7157471776008606
2024-12-04 21:56:12.520284000,2.520283935546875,0.5030063986778259,0.4497329294681549,-0.7988231778144836
2024-12-04 21:56:12.530318800,2.53031884765625,0.5433735847473145,0.5361318588256836,-0.8416994214057922
2024-12-04 21:56:12.540353800,2.540353759765625,0.5712472796440125,0.5665560364723206,-0.8427758812904358
2024-12-04 21:56:12.550388700,2.550388671875,0.5909113883972168,0.513606071472168,-0.8018893003463745
2024-12-04 21:56:12.560424000,2.560423828125,0.5822177529335022,0.4026516377925873,-0.7251482009887695
2024-12-04 21:56:12.570457900,2.570457763671875,0.5540306568145752,0.2894821166992187,-0.6450303792953491
2024-12-04 21:56:12.580493000,2.5804931640625,0.5241848826408386,0.1947763860225677,-0.5753620862960815
2024-12-04 21:56:12.590527700,2.59052783203125,0.493207573890686,0.1122163906693458,-0.5248340964317322
2024-12-04 21:56:12.600562700,2.600562744140625,0.4594863653182983,0.0386388450860977,-0.4733562469482422
2024-12-04 21:56:12.610598000,2.610597900390625,0.4223424792289734,-0.0208678673952817,-0.4168599545955658
2024-12-04 21:56:12.620632800,2.6206328125,0.387921392917633,-0.0696471184492111,-0.3426932990550995
2024-12-04 21:56:12.630668000,2.63066796875,0.3455018997192383,-0.1155388802289962,-0.2526850998401642
2024-12-04 21:56:12.640703000,2.640702880859375,0.2964453995227813,-0.1519669294357299,-0.1581873595714569
2024-12-04 21:56:12.650738000,2.650738037109375,0.2502172291278839,-0.1690958142280578,-0.0728120058774948
2024-12-04 21:56:12.660772900,2.66077294921875,0.2129686623811721,-0.168353334069252,-0.0120549174025654
2024-12-04 21:56:12.670806800,2.670806884765625,0.1877981573343277,-0.1539519876241684,0.0291486196219921
2024-12-04 21:56:12.680842000,2.680842041015625,0.1870439499616623,-0.1327960938215255,0.0436303578317165
2024-12-04 21:56:12.690877000,2.690876953125,0.2053211033344268,-0.1198607087135315,0.0515573844313621
2024-12-04 21:56:12.700911900,2.700911865234375,0.2267869859933853,-0.1238200366497039,0.0453335791826248
2024-12-04 21:56:12.710946800,2.71094677734375,0.2263718098402023,-0.1475085020065307,0.0453708246350288
2024-12-04 21:56:12.720981800,2.720981689453125,0.2177197337150573,-0.1769468188285827,0.043104737997055
2024-12-04 21:56:12.731017000,2.731016845703125,0.2095454335212707,-0.1908705830574035,0.0401005409657955
2024-12-04 21:56:12.741052000,2.741052001953125,0.1956823468208313,-0.1816459149122238,0.0246150605380535
2024-12-04 21:56:12.751086800,2.7510869140625,0.1808530986309051,-0.1586096286773681,0.0046499161981046
2024-12-04 21:56:12.761121000,2.76112109375,0.1647678762674331,-0.1413009464740753,-0.0184367597103118
2024-12-04 21:56:12.771156000,2.771156005859375,0.1588357388973236,-0.1482249498367309,-0.0482436046004295
2024-12-04 21:56:12.781191200,2.781191162109375,0.1747649013996124,-0.1721454560756683,-0.0797719731926918
2024-12-04 21:56:12.791225900,2.791225830078125,0.1975489407777786,-0.1874073147773742,-0.1165494471788406
2024-12-04 21:56:12.801261000,2.801260986328125,0.2216454893350601,-0.1880605816841125,-0.1525575220584869
2024-12-04 21:56:12.811296000,2.8112958984375,0.2455669194459915,-0.1865983009338379,-0.181722491979599
2024-12-04 21:56:12.821331000,2.8213310546875,0.2645635306835174,-0.1813409477472305,-0.2022541314363479
2024-12-04 21:56:12.831366100,2.8313662109375,0.2808279395103454,-0.1677087992429733,-0.2165713012218475
2024-12-04 21:56:12.841401000,2.841401123046875,0.2946281731128692,-0.1375948339700698,-0.2220243960618972
2024-12-04 21:56:12.851435800,2.851435791015625,0.2909178733825683,-0.0984383299946785,-0.2137660682201385
2024-12-04 21:56:12.861470000,2.861469970703125,0.2674317359924316,-0.0628915280103683,-0.1938629448413849
2024-12-04 21:56:12.871505000,2.8715048828125,0.224526822566986,-0.0413814634084701,-0.1464011520147323
2024-12-04 21:56:12.881540000,2.8815400390625,0.179775595664978,-0.0404914394021034,-0.0799275860190391
2024-12-04 21:56:12.891575000,2.891574951171875,0.1332789212465286,-0.0558750443160533,-0.0049429046921432
2024-12-04 21:56:12.901610000,2.90160986328125,0.101861871778965,-0.083987109363079,0.0734054297208786
2024-12-04 21:56:12.911645000,2.91164501953125,0.0804793909192085,-0.1157068833708763,0.1459122449159622
2024-12-04 21:56:12.921680000,2.921679931640625,0.0618199557065963,-0.1514289379119873,0.2082533836364746
2024-12-04 21:56:12.931715000,2.931715087890625,0.0522394962608814,-0.1697179228067398,0.244683563709259
2024-12-04 21:56:12.941750000,2.94175,0.055895484983921,-0.1559030413627624,0.2581322491168976
2024-12-04 21:56:12.951784200,2.9517841796875,0.0654613077640533,-0.125357523560524,0.2599565982818603
2024-12-04 21:56:12.961819000,2.96181884765625,0.061281744390726,-0.0688790678977966,0.2421099692583084
2024-12-04 21:56:12.971854000,2.97185400390625,0.0566597245633602,-0.0063491920009255,0.2209063917398452
2024-12-04 21:56:12.981889000,2.981888916015625,0.0620028227567672,0.0222185365855693,0.1958191394805908
2024-12-04 21:56:12.991924000,2.991924072265625,0.0704881250858306,0.0191335566341877,0.1701616793870926
2024-12-04 21:56:13.001959200,3.001959228515625,0.0736823230981826,0.007969319820404,0.1420906335115432
2024-12-04 21:56:13.011994000,3.011994140625,0.0816263705492019,-0.005535218399018,0.1211648434400558
2024-12-04 21:56:13.022028800,3.02202880859375,0.0874786674976348,-0.0287111103534698,0.1016502678394317
2024-12-04 21:56:13.032064000,3.03206396484375,0.0924681201577186,-0.0643517598509788,0.0927909240126609
2024-12-04 21:56:13.042099000,3.042098876953125,0.0916907414793968,-0.1036885157227516,0.0903048664331436
2024-12-04 21:56:13.052133000,3.052133056640625,0.0921660587191581,-0.1338061392307281,0.0961580201983451
2024-12-04 21:56:13.062168000,3.06216796875,0.0914147794246673,-0.1351664811372757,0.10783651471138
2024-12-04 21:56:13.072203000,3.072203125,0.0766201019287109,-0.1226668730378151,0.1209096759557724
2024-12-04 21:56:13.082238000,3.082238037109375,0.0540346316993236,-0.1175517365336418,0.1487540900707245
2024-12-04 21:56:13.092273000,3.09227294921875,0.0203273370862007,-0.1270117610692978,0.1809037774801254
2024-12-04 21:56:13.102308000,3.10230810546875,-0.0191857181489467,-0.1447382867336273,0.2107791155576706
2024-12-04 21:56:13.112343000,3.112343017578125,-0.0491684190928936,-0.1529389917850494,0.2318495213985443
2024-12-04 21:56:13.122378000,3.1223779296875,-0.0764786005020141,-0.1659706383943557,0.2283980548381805
2024-12-04 21:56:13.132413000,3.132412841796875,-0.0926839485764503,-0.1764961034059524,0.2171767503023147
2024-12-04 21:56:13.142447000,3.142447021484375,-0.0950416475534439,-0.1734494566917419,0.197482943534851
2024-12-04 21:56:13.152482000,3.15248193359375,-0.0958533808588981,-0.1471315324306488,0.1662204712629318
2024-12-04 21:56:13.162517000,3.16251708984375,-0.1252450793981552,-0.1386429667472839,0.1430991739034652
2024-12-04 21:56:13.172552200,3.17255224609375,-0.1880856305360794,-0.1716552525758743,0.1326591670513153
2024-12-04 21:56:13.182587000,3.1825869140625,-0.2670329213142395,-0.227568581700325,0.1264902204275131
2024-12-04 21:56:13.192621800,3.192621826171875,-0.3350886404514313,-0.258380264043808,0.1165293008089065
2024-12-04 21:56:13.202657000,3.202656982421875,-0.3846578001976013,-0.2359604388475418,0.0832911878824234
2024-12-04 21:56:13.212692000,3.21269189453125,-0.4162546694278717,-0.142300546169281,0.0185244493186473
2024-12-04 21:56:13.222727200,3.22272705078125,-0.4207713901996612,-0.0042100604623556,-0.0760369449853897
2024-12-04 21:56:13.232762000,3.23276220703125,-0.3953879773616791,0.1249315068125724,-0.1796145141124725
2024-12-04 21:56:13.242796000,3.242796142578125,-0.3533667325973511,0.2128789275884628,-0.2785429358482361
2024-12-04 21:56:13.252831000,3.2528310546875,-0.3144545257091522,0.2408329844474792,-0.3438814282417297
2024-12-04 21:56:13.262866000,3.262865966796875,-0.2946408689022064,0.2064923197031021,-0.3794791102409363
2024-12-04 21:56:13.272901000,3.272901123046875,-0.3092891573905945,0.110385775566101,-0.3799148797988891
2024-12-04 21:56:13.282936000,3.28293603515625,-0.3322045803070068,0.0032721064053475,-0.3639611899852752
2024-12-04 21:56:13.292971000,3.292970947265625,-0.3504638075828552,-0.0481497757136821,-0.3509280383586883
2024-12-04 21:56:13.303006000,3.303005859375,-0.3699190020561218,0.0110938409343361,-0.3599739968776703
2024-12-04 21:56:13.313041000,3.313041015625,-0.3962127566337585,0.1874291002750396,-0.3842959403991699
2024-12-04 21:56:13.323076000,3.323076171875,-0.4278106093406677,0.4258259236812591,-0.3991473317146301
2024-12-04 21:56:13.333111000,3.333111083984375,-0.4592478573322296,0.6221469044685364,-0.3671862781047821
2024-12-04 21:56:13.343145200,3.343145263671875,-0.503649115562439,0.675000011920929,-0.2586464881896972
2024-12-04 21:56:13.353180000,3.353179931640625,-0.5767686367034912,0.5762706398963928,-0.0793250054121017
2024-12-04 21:56:13.363214800,3.36321484375,-0.679675281047821,0.3657619059085846,0.1469145268201828
2024-12-04 21:56:13.373250000,3.37325,-0.8069024085998535,0.0908976569771766,0.376158744096756
2024-12-04 21:56:13.383285000,3.383284912109375,-0.9305915832519532,-0.1532518863677978,0.5581498742103577
2024-12-04 21:56:13.393320200,3.3933203125,-1.0225622653961182,-0.2945460081100464,0.6618075966835022
2024-12-04 21:56:13.403355100,3.403355224609375,-1.0631695985794067,-0.3268645405769348,0.68841552734375
2024-12-04 21:56:13.413389800,3.413389892578125,-1.0583925247192385,-0.2462019771337509,0.6450698971748352
2024-12-04 21:56:13.423425000,3.423425048828125,-1.0272727012634275,-0.0899066403508186,0.5598130226135254
2024-12-04 21:56:13.433460000,3.4334599609375,-0.9817785024642944,0.0814225822687149,0.4520290195941925
2024-12-04 21:56:13.443495000,3.443494873046875,-0.9334783554077148,0.2119789868593216,0.3497021198272705
2024-12-04 21:56:13.453529000,3.453529052734375,-0.8973971605300903,0.2516556978225708,0.2622475922107696
2024-12-04 21:56:13.463564000,3.46356396484375,-0.8750825524330139,0.213564783334732,0.1942791938781738
2024-12-04 21:56:13.473599000,3.473598876953125,-0.8678626418113708,0.142658457159996,0.1406130641698837
2024-12-04 21:56:13.483634000,3.483634033203125,-0.8703358769416809,0.0774472206830978,0.0930455550551414
2024-12-04 21:56:13.493669000,3.493669189453125,-0.8732038140296936,0.0360796898603439,0.0532871820032596
2024-12-04 21:56:13.503704000,3.5037041015625,-0.8709478378295898,0.0065628066658973,0.0287685226649045
2024-12-04 21:56:13.513739000,3.513739013671875,-0.8571980595588684,-0.0097310282289981,0.0018317960202693
2024-12-04 21:56:13.523774000,3.52377392578125,-0.8269890546798706,-0.0028371699154376,-0.0254040863364934
2024-12-04 21:56:13.533809000,3.533808837890625,-0.7824123501777649,0.0049196793697774,-0.0552066899836063
2024-12-04 21:56:13.543844000,3.543843994140625,-0.7279648184776306,-0.005621378775686,-0.0887577310204505
2024-12-04 21:56:13.553878000,3.5538779296875,-0.6537768244743347,-0.023407831788063,-0.1276595890522003
2024-12-04 21:56:13.563913200,3.563913330078125,-0.570134162902832,-0.0360208302736282,-0.1656786054372787
2024-12-04 21:56:13.573948000,3.573947998046875,-0.4850156009197235,-0.0463955514132976,-0.1890392899513244
2024-12-04 21:56:13.583982800,3.58398291015625,-0.4141581952571869,-0.0561536401510238,-0.200240284204483
2024-12-04 21:56:13.594018000,3.59401806640625,-0.368267148733139,-0.0673402920365333,-0.1925987005233764
2024-12-04 21:56:13.604053000,3.604052978515625,-0.3514916598796844,-0.0716471597552299,-0.1647433787584304
2024-12-04 21:56:13.614088000,3.614087890625,-0.3576229512691498,-0.0808103755116462,-0.1357161700725555
2024-12-04 21:56:13.624123100,3.624123046875,-0.3830209970474243,-0.1080047115683555,-0.0928238406777381
2024-12-04 21:56:13.634158000,3.634157958984375,-0.4092501997947693,-0.1449806988239288,-0.0541638731956481
2024-12-04 21:56:13.644193000,3.644193115234375,-0.4305994212627411,-0.1767596751451492,-0.0196021664887666
2024-12-04 21:56:13.654228000,3.65422802734375,-0.4368305206298828,-0.2043893039226532,0.0041878931224346
2024-12-04 21:56:13.664262100,3.66426220703125,-0.4407128691673279,-0.2242133468389511,0.0268564540892839
2024-12-04 21:56:13.674297000,3.674297119140625,-0.4449411332607269,-0.2451627552509308,0.0491458885371685
2024-12-04 21:56:13.684332000,3.68433203125,-0.4310231804847717,-0.2722577750682831,0.0783421248197555
2024-12-04 21:56:13.694367000,3.694366943359375,-0.390157014131546,-0.2707315385341644,0.0921287760138511
2024-12-04 21:56:13.704402000,3.70440185546875,-0.3349110782146454,-0.2369690388441085,0.0908557847142219
2024-12-04 21:56:13.714437000,3.71443701171875,-0.2797828018665313,-0.1748508214950561,0.0901419445872306
2024-12-04 21:56:13.724472000,3.72447216796875,-0.2345234304666519,-0.079107791185379,0.0943089947104454
2024-12-04 21:56:13.734507000,3.734507080078125,-0.2039418369531631,0.0650854781270027,0.1136985942721366
2024-12-04 21:56:13.744542200,3.744542236328125,-0.1888286620378494,0.1854563504457473,0.1482333987951278
2024-12-04 21:56:13.754578000,3.754577880859375,-0.1710749268531799,0.233079195022583,0.1861285120248794
2024-12-04 21:56:13.764611800,3.76461181640625,-0.1394181996583938,0.2002882361412048,0.2150136828422546
2024-12-04 21:56:13.774646800,3.774646728515625,-0.1080909147858619,0.1256000250577926,0.212143525481224
2024-12-04 21:56:13.784681700,3.784681640625,-0.0796195939183235,0.0736321657896041,0.1926300078630447
2024-12-04 21:56:13.794717000,3.794717041015625,-0.043607510626316,0.0363906472921371,0.1926386058330536
2024-12-04 21:56:13.804752000,3.804751953125,0.0104338843375444,0.0023533175699412,0.2139279097318649
2024-12-04 21:56:13.814786800,3.814786865234375,0.0831516832113266,-0.0438876003026962,0.2477787435054779
2024-12-04 21:56:13.824822000,3.824822021484375,0.1439388692378997,-0.1005141288042068,0.2798999547958374
2024-12-04 21:56:13.834856700,3.834856689453125,0.206204205751419,-0.1255105584859848,0.3213666975498199
2024-12-04 21:56:13.844892000,3.844891845703125,0.2769169807434082,-0.0939899161458015,0.3553640842437744
2024-12-04 21:56:13.854926800,3.8549267578125,0.3497591316699981,-0.0114115141332149,0.3885816037654876
2024-12-04 21:56:13.864961800,3.8649619140625,0.4179547131061554,0.104712426662445,0.407279908657074
2024-12-04 21:56:13.874996000,3.874995849609375,0.461634486913681,0.1857507526874542,0.426358550786972
2024-12-04 21:56:13.885030700,3.88503076171875,0.4767298102378845,0.1929921507835388,0.4527587294578552
2024-12-04 21:56:13.895065900,3.89506591796875,0.4773736298084259,0.1722035259008407,0.4608386754989624
2024-12-04 21:56:13.905100800,3.905100830078125,0.4682962298393249,0.1666867882013321,0.4460504055023193
2024-12-04 21:56:13.915135700,3.9151357421875,0.4431565403938293,0.1787924021482467,0.4081223607063293
2024-12-04 21:56:13.925171000,3.9251708984375,0.4038725197315216,0.1923561543226242,0.3492369353771209
2024-12-04 21:56:13.935206000,3.935205810546875,0.3499295711517334,0.1766608506441116,0.2695914506912231
2024-12-04 21:56:13.945240800,3.94524072265625,0.274906724691391,0.138016790151596,0.1751517653465271
2024-12-04 21:56:13.955275800,3.95527587890625,0.1749673783779144,0.0437220446765422,0.0909230187535286
2024-12-04 21:56:13.965310700,3.965310791015625,0.0775814354419708,-0.1287274807691574,0.1596387028694152
2024-12-04 21:56:13.975345000,3.975344970703125,-0.0218117702752351,-0.2106293439865112,0.1467049419879913
2024-12-04 21:56:13.985379800,3.9853798828125,-0.0584254413843154,-0.243851751089096,0.1435744017362594
2024-12-04 21:56:13.995414800,3.995414794921875,-0.0283429250121116,-0.1779059320688247,0.133237674832344
2024-12-04 21:56:14.005449700,4.00544970703125,0.041557066142559,-0.136698842048645,0.131168395280838
2024-12-04 21:56:14.015485000,4.01548486328125,0.1089944913983345,-0.1591279208660125,0.1389480233192443
2024-12-04 21:56:14.025518800,4.025518798828125,0.1665845662355423,-0.2269836664199829,0.1319835931062698
2024-12-04 21:56:14.035554000,4.035553955078125,0.1924858689308166,-0.2711400985717773,0.1243996396660804
2024-12-04 21:56:14.045588700,4.045588623046875,0.179137572646141,-0.2737651765346527,0.1109046041965484
2024-12-04 21:56:14.055623700,4.055623779296875,0.0988847762346267,-0.3257451355457306,0.0679166987538337
2024-12-04 21:56:14.065659000,4.065658935546875,-0.0649494305253028,-0.4501951932907104,-0.0109243206679821
2024-12-04 21:56:14.075693800,4.07569384765625,-0.17578986287117,-0.3141289055347442,-0.1892485320568084
2024-12-04 21:56:14.085728800,4.085728759765625,-0.2027104198932647,0.0468809604644775,-0.3934347033500671
2024-12-04 21:56:14.095764000,4.095763916015625,-0.161357432603836,0.3863352537155151,-0.6059505939483643
2024-12-04 21:56:14.105799000,4.105798828125,-0.0666865929961204,0.5326911807060242,-0.7871294021606445
2024-12-04 21:56:14.115833900,4.115833740234375,0.0835191532969474,0.3973008096218109,-0.8874339461326599
2024-12-04 21:56:14.125868800,4.125868896484375,0.228787675499916,0.1341610550880432,-0.8268406391143799
2024-12-04 21:56:14.135903000,4.135903076171875,0.3532030880451202,-0.0691733732819557,-0.6706719398498535
2024-12-04 21:56:14.145938000,4.14593798828125,0.4306581914424896,-0.148267924785614,-0.5109046697616577
2024-12-04 21:56:14.155972900,4.155972900390625,0.4332239031791687,-0.1418601423501968,-0.3074652254581451
2024-12-04 21:56:14.166007800,4.1660078125,0.3905169367790222,-0.1355090290307998,-0.063224583864212
2024-12-04 21:56:14.176042800,4.176042724609375,0.3238580226898193,-0.1607957035303115,0.1843448430299759
2024-12-04 21:56:14.186078000,4.186077880859375,0.2599256336688995,-0.1493233293294906,0.3943332135677337
2024-12-04 21:56:14.196113000,4.19611279296875,0.1855316311120987,-0.0500047281384468,0.5670063495635986
2024-12-04 21:56:14.206147800,4.20614794921875,0.1022162362933158,0.1088168770074844,0.6884728670120239
2024-12-04 21:56:14.216183000,4.21618310546875,0.0366421937942504,0.3058010637760162,0.7700454592704773
2024-12-04 21:56:14.226217700,4.2262177734375,-0.0048618377186357,0.4674775600433349,0.8083949685096741
2024-12-04 21:56:14.236252700,4.236252685546875,-0.0339568741619586,0.5135068297386169,0.7981013655662537
2024-12-04 21:56:14.246288000,4.246287841796875,-0.0160239450633525,0.3876969814300537,0.6978431940078735
2024-12-04 21:56:14.256322800,4.25632275390625,-0.0234418623149395,0.2152095586061477,0.5473489165306091
2024-12-04 21:56:14.266358000,4.26635791015625,-0.0528594069182872,0.0513665676116943,0.2701908051967621
2024-12-04 21:56:14.276393000,4.27639306640625,-0.1206805482506752,0.0282741244882345,-0.0268908515572547
2024-12-04 21:56:14.286427000,4.286427001953125,-0.2054428458213806,0.0578213632106781,-0.3151788413524627
2024-12-04 21:56:14.296461800,4.2964619140625,-0.2812278866767883,0.1573561728000641,-0.5823459625244141
2024-12-04 21:56:14.306496800,4.306496826171875,-0.2951695322990417,0.373668223619461,-0.814059853553772
2024-12-04 21:56:14.316532000,4.316531982421875,-0.241570234298706,0.6622301936149597,-0.9949706196784972
2024-12-04 21:56:14.326567000,4.32656689453125,-0.1554193645715713,1.0015459060668943,-1.1285467147827148
2024-12-04 21:56:14.336601900,4.336601806640625,-0.0458484552800655,1.3377662897109983,-1.2113326787948608
2024-12-04 21:56:14.346636800,4.34663671875,0.3202293813228607,0.0204552337527275,-1.134529709815979
2024-12-04 21:56:14.356671700,4.356671630859375,1.079001784324646,-0.654325008392334,-1.1446235179901123
2024-12-04 21:56:14.366707000,4.36670703125,1.886168956756592,-0.4590763747692108,-1.206747055053711
2024-12-04 21:56:14.376742000,4.376741943359375,2.292953491210937,-0.6003846526145935,-1.10700786113739
2024-12-04 21:56:14.386776800,4.38677685546875,2.327620029449463,-0.5741463899612427,-0.8984819054603577
2024-12-04 21:56:14.396812000,4.39681201171875,2.096699476242065,-0.1655996441841125,-0.6134570837020874
2024-12-04 21:56:14.406845700,4.406845703125,1.7946398258209229,0.4621785283088684,-0.2276907116174698
2024-12-04 21:56:14.416881000,4.416880859375,1.545790433883667,0.7581552863121033,0.2628028690814972
2024-12-04 21:56:14.426915800,4.426915771484375,1.4520412683486938,0.8360825777053833,0.7983893156051636
2024-12-04 21:56:14.436951000,4.436950927734375,1.4106154441833496,1.0595571994781494,1.214638590812683
2024-12-04 21:56:14.446986000,4.446986083984375,1.272607445716858,1.224867582321167,1.4741201400756836
2024-12-04 21:56:14.457020700,4.457020751953125,1.2960164546966553,1.079281449317932,1.8834556341171265
2024-12-04 21:56:14.467055900,4.467055908203125,1.2621876001358032,1.0792728662490845,2.093193769454956
2024-12-04 21:56:14.477090800,4.4770908203125,1.2509533166885376,0.9408107995986938,2.23802137374878
2024-12-04 21:56:14.487125800,4.487125732421875,1.251368284225464,0.6692171096801758,2.3331432342529297
2024-12-04 21:56:14.497161000,4.497160888671875,1.231488585472107,0.3946419656276703,2.377025365829468
2024-12-04 21:56:14.507196000,4.50719580078125,1.1098124980926514,0.0762607976794242,2.27757215499878
2024-12-04 21:56:14.517230800,4.51723095703125,0.8224312663078308,-0.5120787620544434,1.8940271139144893
2024-12-04 21:56:14.527265800,4.527265869140625,0.4474035501480102,-1.2424006462097168,1.2868950366973877
2024-12-04 21:56:14.537300000,4.537300048828125,0.1016478389501571,-1.5810633897781372,0.5609670281410217
2024-12-04 21:56:14.547335000,4.5473349609375,-0.0780572146177291,-0.8116239309310913,-0.3385608792304992
2024-12-04 21:56:14.557369900,4.557369873046875,0.1800227910280227,-0.3492215275764465,-0.5658789277076721
2024-12-04 21:56:14.567404800,4.56740478515625,0.2704730629920959,-0.7796685695648193,-0.7327856421470642
2024-12-04 21:56:14.577439700,4.577439697265625,0.1885875016450882,-0.2860778868198395,-0.8296666145324707
2024-12-04 21:56:14.587475000,4.587474853515625,0.1221485510468483,0.0819555222988128,-0.7569860219955444
2024-12-04 21:56:14.597510000,4.597510009765625,0.0225790161639451,0.1938777565956115,-0.6381035447120667
2024-12-04 21:56:14.607544800,4.607544921875,-0.01233262848109,0.1686376482248306,-0.4828881323337555
2024-12-04 21:56:14.617580000,4.617580078125,0.0070784115232527,0.098119668662548,-0.3354122936725616
2024-12-04 21:56:14.627614700,4.62761474609375,0.0135887740179896,-0.0071159400977194,-0.2103843539953231
2024-12-04 21:56:14.637649700,4.637649658203125,-0.0090555557981133,-0.1285281628370285,-0.1170220300555229
2024-12-04 21:56:14.647684900,4.647684814453125,-0.0602862536907196,-0.2372767478227615,-0.0388204380869865
2024-12-04 21:56:14.657718800,4.65771875,-0.1400111615657806,-0.2872806489467621,0.0113599840551614
2024-12-04 21:56:14.667754000,4.66775390625,-0.2234919369220733,-0.271553635597229,0.0436955541372299
2024-12-04 21:56:14.677788700,4.67778857421875,-0.2841430604457855,-0.2368686646223068,0.0565668791532516
2024-12-04 21:56:14.687824000,4.687823974609375,-0.3137057423591614,-0.2031415998935699,0.0537617728114128
2024-12-04 21:56:14.697858800,4.69785888671875,-0.3421128392219543,-0.1935373991727829,0.0448355376720428
2024-12-04 21:56:14.707893800,4.707893798828125,-0.3833154141902923,-0.1762428283691406,0.0217651054263114
2024-12-04 21:56:14.717929000,4.717928955078125,-0.4427793323993683,-0.1504435837268829,0.0065160021185874
2024-12-04 21:56:14.727964000,4.7279638671875,-0.5085753798484802,-0.1291121989488601,-0.0145717058330774
2024-12-04 21:56:14.737998800,4.737998779296875,-0.5739045739173889,-0.1266220957040786,-0.0211680904030799
2024-12-04 21:56:14.748033800,4.74803369140625,-0.6242710947990417,-0.119879774749279,-0.0086288647726178
2024-12-04 21:56:14.758068500,4.758068359375,-0.6625639200210571,-0.0903373658657074,0.0122403167188167
2024-12-04 21:56:14.768103400,4.768103515625,-0.6860492825508118,-0.0564579628407955,0.0463530160486698
2024-12-04 21:56:14.778138400,4.778138427734375,-0.6871443390846252,0.017186252400279,0.0850028991699218
2024-12-04 21:56:14.788172500,4.788172607421875,-0.6863890886306763,0.0106362085789442,0.1000553518533706
2024-12-04 21:56:14.798207500,4.79820751953125,-0.6924879550933838,-0.0812961980700492,0.0793321579694747
2024-12-04 21:56:14.808242400,4.808242431640625,-0.7108102440834045,-0.1325098574161529,0.0198232848197221
2024-12-04 21:56:14.818277400,4.81827734375,-0.7112816572189331,-0.2264519333839416,-0.0656837001442909
2024-12-04 21:56:14.828312300,4.828312255859375,-0.6988601684570312,-0.3345541656017303,-0.1616986542940139
2024-12-04 21:56:14.838347500,4.838347412109375,-0.6749534606933594,-0.426680713891983,-0.2531228065490722
2024-12-04 21:56:14.848382500,4.848382568359375,-0.6434546709060669,-0.492878645658493,-0.3331899344921112
2024-12-04 21:56:14.858417400,4.85841748046875,-0.5984839200973511,-0.5293368101119995,-0.3954755365848541
2024-12-04 21:56:14.868452600,4.86845263671875,-0.5390099883079529,-0.5246278047561646,-0.4358898103237152
2024-12-04 21:56:14.878487600,4.878487548828125,-0.4581992626190185,-0.4992928802967071,-0.4633921086788177
2024-12-04 21:56:14.888522500,4.8885224609375,-0.3670917451381683,-0.4752562344074249,-0.4763736724853515
2024-12-04 21:56:14.898557400,4.898557373046875,-0.2944590747356415,-0.461526483297348,-0.4804703295230865
2024-12-04 21:56:14.908592400,4.90859228515625,-0.2786699831485748,-0.4793323874473572,-0.4718899130821228
2024-12-04 21:56:14.918626600,4.91862646484375,-0.3302051424980163,-0.5309984683990479,-0.4556694328784942
2024-12-04 21:56:14.928661500,4.92866162109375,-0.4271996021270752,-0.584484875202179,-0.4200235605239868
2024-12-04 21:56:14.938696400,4.938696533203125,-0.5359354019165039,-0.5759838223457336,-0.3527983129024505
2024-12-04 21:56:14.948731400,4.9487314453125,-0.6337777972221375,-0.4448129832744598,-0.2541508376598358
2024-12-04 21:56:14.958766300,4.958766357421875,-0.6979232430458069,-0.239288181066513,-0.1391590982675552
2024-12-04 21:56:14.968801500,4.968801513671875,-0.7129464149475098,-0.0544150099158287,-0.0239968188107013
2024-12-04 21:56:14.978836500,4.97883642578125,-0.6825823783874512,0.0558002218604087,0.0769205912947654
2024-12-04 21:56:14.988871700,4.98887158203125,-0.6276858448982239,0.1244799569249153,0.1720383167266845
2024-12-04 21:56:14.998906400,4.99890625,-0.5589866638183594,0.170472040772438,0.2627618014812469
2024-12-04 21:56:15.008941300,5.00894140625,-0.4982737898826599,0.1843601614236831,0.3383580148220062
2024-12-04 21:56:15.018976500,5.0189765625,-0.4514870941638946,0.1568062901496887,0.3977459967136383
2024-12-04 21:56:15.029011500,5.029011474609375,-0.424635499715805,0.1110715568065643,0.4338054358959198
2024-12-04 21:56:15.039046400,5.03904638671875,-0.418142169713974,0.0512765794992446,0.4468729496002197
2024-12-04 21:56:15.049080300,5.049080322265625,-0.4412038028240204,0.0008038175292313,0.4386171698570251
2024-12-04 21:56:15.059115500,5.059115478515625,-0.4809540808200836,-0.0082567576318979,0.4139571189880371
2024-12-04 21:56:15.069150500,5.069150390625,-0.5282930731773376,0.0113193411380052,0.3633677065372467
2024-12-04 21:56:15.079185400,5.079185302734375,-0.5697716474533081,0.02958126924932,0.2923065721988678
2024-12-04 21:56:15.089220600,5.089220703125,-0.5938943028450012,0.0305567849427461,0.2036169320344925
2024-12-04 21:56:15.099255600,5.099255615234375,-0.5949254035949707,0.0172870978713035,0.1085955053567886
2024-12-04 21:56:15.109290200,5.109290283203125,-0.568966805934906,-0.0025926015805453,0.0293829683214426
2024-12-04 21:56:15.119325400,5.119325439453125,-0.5347659587860107,-0.0113730002194643,-0.031494915485382
2024-12-04 21:56:15.129360400,5.1293603515625,-0.4966814517974853,0.0020767624955624,-0.0609665215015411
2024-12-04 21:56:15.139395600,5.1393955078125,-0.4644732177257538,0.0231414791196584,-0.0565616488456726
2024-12-04 21:56:15.149430500,5.149430419921875,-0.4533694088459015,0.0443242602050304,-0.0193722024559974
2024-12-04 21:56:15.159465500,5.159465576171875,-0.4558173716068268,0.0678164064884185,0.031568169593811
2024-12-04 21:56:15.169500700,5.169500732421875,-0.4659991562366485,0.0769614353775978,0.0879933610558509
2024-12-04 21:56:15.179535400,5.179535400390625,-0.4747420251369476,0.0856752917170524,0.153092086315155
2024-12-04 21:56:15.189569500,5.189569580078125,-0.4875169396400451,0.104200504720211,0.2264864146709442
2024-12-04 21:56:15.199604500,5.1996044921875,-0.4994325637817383,0.1419665217399597,0.3158234059810638
2024-12-04 21:56:15.209639400,5.209639404296875,-0.5076526999473572,0.1863944381475448,0.3922915458679199
2024-12-04 21:56:15.219674600,5.219674560546875,-0.4985552728176117,0.2068416774272918,0.4625167548656463
2024-12-04 21:56:15.229709300,5.229709228515625,-0.4587737619876861,0.1956824958324432,0.5217084288597107
2024-12-04 21:56:15.239744500,5.23974462890625,-0.3925156593322754,0.1925049424171447,0.5822190642356873
2024-12-04 21:56:15.249779500,5.249779541015625,-0.3242210149765014,0.2177221477031707,0.6384685039520264
2024-12-04 21:56:15.259814400,5.259814453125,-0.2569873034954071,0.247176706790924,0.6764029264450073
2024-12-04 21:56:15.269849600,5.269849609375,-0.1950043588876724,0.27437824010849,0.6857064366340637
2024-12-04 21:56:15.279884500,5.279884521484375,-0.1470595598220825,0.3259860873222351,0.6713107228279114
2024-12-04 21:56:15.289919500,5.28991943359375,-0.1182127296924591,0.3731320202350616,0.6449204087257385
2024-12-04 21:56:15.299954400,5.299954345703125,-0.0942688062787056,0.4229629933834076,0.6158362627029419
2024-12-04 21:56:15.309989400,5.3099892578125,-0.0715754777193069,0.4792497158050537,0.5903815031051636
2024-12-04 21:56:15.320024600,5.320024658203125,-0.0437425263226032,0.5325849056243896,0.5697606205940247
2024-12-04 21:56:15.330058500,5.33005859375,0.0157474316656589,0.588234007358551,0.5570147037506104
2024-12-04 21:56:15.340093400,5.340093505859375,0.1051399409770965,0.6491134166717529,0.5486961007118225
2024-12-04 21:56:15.350128400,5.35012841796875,0.2205743938684463,0.6920041441917419,0.5450877547264099
2024-12-04 21:56:15.360163300,5.360163330078125,0.3318889141082763,0.7439470887184143,0.5491673946380615
2024-12-04 21:56:15.370198500,5.370198486328125,0.4047436714172363,0.8034791350364685,0.5481308698654175
2024-12-04 21:56:15.380233500,5.3802333984375,0.4192962944507599,0.8285600543022156,0.5363868474960327
2024-12-04 21:56:15.390268700,5.3902685546875,0.3848706781864166,0.8405594825744629,0.497507631778717
2024-12-04 21:56:15.400303400,5.400303466796875,0.3825449049472809,0.8430874347686768,0.4357126951217651
2024-12-04 21:56:15.410338300,5.41033837890625,0.4321390986442566,0.7847396731376648,0.3912149965763092
2024-12-04 21:56:15.420373500,5.42037353515625,0.4419611096382141,0.7379489541053772,0.3529834747314453
2024-12-04 21:56:15.430408400,5.430408447265625,0.4141776859760284,0.7456321716308594,0.3542112112045288
2024-12-04 21:56:15.440443400,5.440443359375,0.3208823800086975,0.6961303353309631,0.3524423539638519
2024-12-04 21:56:15.450478600,5.450478515625,0.2260645031929016,0.6031521558761597,0.3418786525726318
2024-12-04 21:56:15.460513500,5.460513427734375,0.1941283792257309,0.6072063446044922,0.3590119183063507
2024-12-04 21:56:15.470547500,5.47054736328125,0.1988602727651596,0.6972686052322388,0.3908782303333282
2024-12-04 21:56:15.480582400,5.48058251953125,0.2303044646978378,0.7720422744750977,0.3989575207233429
2024-12-04 21:56:15.490617600,5.49061767578125,0.2576079666614532,0.7920271754264832,0.3703612983226776
2024-12-04 21:56:15.500652500,5.500652587890625,0.2532790303230285,0.7658259868621826,0.296003133058548
2024-12-04 21:56:15.510687500,5.5106875,0.2161478996276855,0.6726734042167664,0.1784131228923797
2024-12-04 21:56:15.520722400,5.520722412109375,0.152631789445877,0.5294283032417297,0.0214406289160251
2024-12-04 21:56:15.530757400,5.53075732421875,0.1015102788805961,0.4002226293087005,-0.1557525247335434
2024-12-04 21:56:15.540792600,5.54079248046875,0.0803853496909141,0.1969524174928665,-0.3381424248218536
2024-12-04 21:56:15.550827500,5.55082763671875,0.0583615414798259,-0.0857298746705055,-0.4252448379993438
2024-12-04 21:56:15.560862500,5.560862548828125,0.0430666990578174,-0.1856492310762405,-0.4312193095684051
2024-12-04 21:56:15.570897700,5.570897705078125,0.0452978946268558,-0.1925942301750183,-0.4250090718269348
2024-12-04 21:56:15.580932400,5.580932373046875,0.0397074371576309,-0.2250306904315948,-0.4543471038341522
2024-12-04 21:56:15.590967300,5.59096728515625,0.0405045226216316,-0.2749612331390381,-0.4992671608924866
2024-12-04 21:56:15.601002500,5.60100244140625,0.0526660345494747,-0.2770682871341705,-0.5365023612976074
2024-12-04 21:56:15.611037400,5.611037353515625,0.0676729455590248,-0.2398636639118194,-0.5660182237625122
2024-12-04 21:56:15.621071600,5.621071533203125,0.0791628882288932,-0.193411037325859,-0.5889527797698975
2024-12-04 21:56:15.631106300,5.631106201171875,0.0877246782183647,-0.1519868969917297,-0.610130250453949
2024-12-04 21:56:15.641141500,5.6411416015625,0.0887660682201385,-0.1325928121805191,-0.6273125410079956
2024-12-04 21:56:15.651176400,5.651176513671875,0.0704067647457122,-0.09265898168087,-0.6453123092651367
2024-12-04 21:56:15.661211400,5.66121142578125,0.0557853989303112,-0.0360326766967773,-0.6633508801460266
2024-12-04 21:56:15.671246600,5.67124658203125,0.0490281581878662,0.0036460268311202,-0.6845262050628662
2024-12-04 21:56:15.681281500,5.681281494140625,0.0602339655160903,0.0246677380055189,-0.6969611048698425
2024-12-04 21:56:15.691316500,5.69131640625,0.1055857315659523,0.0114432787522673,-0.6815858483314514
2024-12-04 21:56:15.701351400,5.701351318359375,0.1753980964422226,-0.0623942390084266,-0.6374624371528625
2024-12-04 21:56:15.711386400,5.711386474609375,0.2495269328355789,-0.2002367824316024,-0.573393702507019
2024-12-04 21:56:15.721421600,5.721421630859375,0.3305205702781677,-0.3593438565731048,-0.4922479093074798
2024-12-04 21:56:15.731456500,5.73145654296875,0.4004961848258972,-0.4918262660503387,-0.3987946510314941
2024-12-04 21:56:15.741491500,5.741491455078125,0.4581360518932342,-0.5526860356330872,-0.3012837171554565
2024-12-04 21:56:15.751526400,5.7515263671875,0.5072458386421204,-0.5467786192893982,-0.2109021544456482
2024-12-04 21:56:15.761560000,5.76156005859375,0.5470718145370483,-0.4837798178195953,-0.1357073038816452
2024-12-04 21:56:15.771594800,5.7715947265625,0.5771080255508423,-0.3665067255496979,-0.0828882902860641
2024-12-04 21:56:15.781629700,5.781629638671875,0.6044538617134094,-0.2225854098796844,-0.0557390339672565
2024-12-04 21:56:15.791665000,5.791664794921875,0.6433565020561218,-0.07241802662611,-0.0441505536437034
2024-12-04 21:56:15.801699800,5.801699951171875,0.6850013732910156,0.0645787939429283,-0.0271307490766048
2024-12-04 21:56:15.811735000,5.811735107421875,0.7270364761352539,0.1612523347139358,-0.0030669588595628
2024-12-04 21:56:15.821770000,5.82177001953125,0.7591917514801025,0.2179648131132125,0.0359982252120971
2024-12-04 21:56:15.831804700,5.8318046875,0.7779327034950256,0.2443543374538421,0.0841298028826713
2024-12-04 21:56:15.841839900,5.84183984375,0.7724873423576355,0.2385070621967315,0.1408443748950958
2024-12-04 21:56:15.851874800,5.851874755859375,0.737847626209259,0.1990206390619278,0.1940615177154541
2024-12-04 21:56:15.861909800,5.86190966796875,0.6829625368118286,0.1503913551568985,0.2250642925500869
2024-12-04 21:56:15.871945000,5.871945068359375,0.6142236590385437,0.098648265004158,0.2264350205659866
2024-12-04 21:56:15.881980000,5.88197998046875,0.5359887480735779,0.0465585477650165,0.2041874974966049
2024-12-04 21:56:15.892014800,5.892014892578125,0.4587725102901459,0.0033210630062967,0.1555382162332534
2024-12-04 21:56:15.902049800,5.9020498046875,0.376891016960144,-0.0439179837703704,0.0896797180175781
2024-12-04 21:56:15.912084700,5.912084716796875,0.3024308979511261,-0.0808616206049919,0.0103739760816097
2024-12-04 21:56:15.922120000,5.922119873046875,0.2385251075029373,-0.0790294110774993,-0.0485936217010021
2024-12-04 21:56:15.932153900,5.93215380859375,0.1957161277532577,-0.0494017489254474,-0.0874938815832138
2024-12-04 21:56:15.942188800,5.942188720703125,0.1680772751569748,-0.017770916223526,-0.1019656509160995
2024-12-04 21:56:15.952223700,5.9522236328125,0.157470166683197,0.0113464891910552,-0.0951359719038009
2024-12-04 21:56:15.962258700,5.9622587890625,0.1525795757770538,0.0349218733608722,-0.0655503422021865
2024-12-04 21:56:15.972294000,5.9722939453125,0.1547226160764694,0.0584884509444236,-0.0179024003446102
2024-12-04 21:56:15.982328800,5.982328857421875,0.1447150409221649,0.0743431895971298,0.0230659171938896
2024-12-04 21:56:15.992364000,5.992364013671875,0.1274359077215194,0.0879181250929832,0.0476239882409572
2024-12-04 21:56:16.002399000,6.00239892578125,0.1170575246214866,0.0748764798045158,0.0531296953558921
2024-12-04 21:56:16.012433700,6.01243359375,0.0977946147322654,0.026765676215291,0.046649158000946
2024-12-04 21:56:16.022468900,6.02246875,0.0636272951960563,-0.0332517772912979,0.0316618792712688
2024-12-04 21:56:16.032503800,6.03250390625,0.0208401530981063,-0.0728394016623497,0.014062114059925
2024-12-04 21:56:16.042539000,6.0425390625,-0.0287782624363899,-0.0659204199910163,-0.0058533083647489
2024-12-04 21:56:16.052574000,6.052573974609375,-0.072332926094532,-0.0433621108531951,-0.0308454763144254
2024-12-04 21:56:16.062609000,6.06260888671875,-0.1186923533678054,-0.0288232285529375,-0.0670129209756851
2024-12-04 21:56:16.072643800,6.072643798828125,-0.1652998030185699,-0.0214358866214752,-0.0987314358353614
2024-12-04 21:56:16.082678800,6.0826787109375,-0.218304768204689,-0.0394747778773307,-0.1276658475399017
2024-12-04 21:56:16.092713000,6.092712890625,-0.2841623425483703,-0.0850808769464492,-0.1658065766096115
2024-12-04 21:56:16.102748000,6.102747802734375,-0.3702863156795501,-0.0968658626079559,-0.2115562558174133
2024-12-04 21:56:16.112782800,6.112782958984375,-0.4372216761112213,-0.080139085650444,-0.2614673674106598
2024-12-04 21:56:16.122817800,6.12281787109375,-0.5003876090049744,-0.0820386260747909,-0.3262312114238739
2024-12-04 21:56:16.132852700,6.132852783203125,-0.5590210556983948,-0.1053285002708435,-0.4070789217948913
2024-12-04 21:56:16.142888000,6.142887939453125,-0.6275458335876465,-0.1314485073089599,-0.4932631850242615
2024-12-04 21:56:16.152923000,6.1529228515625,-0.7082534432411194,-0.1263962239027023,-0.5730165839195251
2024-12-04 21:56:16.162957800,6.162957763671875,-0.8075217008590698,-0.0893987491726875,-0.6581589579582214
2024-12-04 21:56:16.172993000,6.172992919921875,-0.9121685028076172,-0.062292568385601,-0.710191547870636
2024-12-04 21:56:16.183027700,6.18302783203125,-1.027785062789917,-0.0645541176199913,-0.7551335692405701
2024-12-04 21:56:16.193062700,6.193062744140625,-1.0910329818725586,0.0076697459444403,-0.8076343536376953
2024-12-04 21:56:16.203097900,6.203097900390625,-0.926484227180481,0.489886462688446,-0.8925968408584595
2024-12-04 21:56:16.213132800,6.2131328125,-0.6753790378570557,0.9320090413093568,-1.005890965461731
2024-12-04 21:56:16.223168000,6.22316796875,-0.5033043026924133,0.7551278471946716,-1.093076467514038
2024-12-04 21:56:16.233203000,6.233202880859375,-0.4093903005123138,0.3699979782104492,-1.159060001373291
2024-12-04 21:56:16.243237600,6.243237548828125,-0.3415787518024444,0.1764872074127197,-1.1896744966506958
2024-12-04 21:56:16.253271800,6.253271728515625,-0.2744031548500061,0.0888175591826438,-1.1613707542419434
2024-12-04 21:56:16.263306800,6.263306640625,-0.2259006202220916,-0.0165204089134931,-1.0673024654388428
2024-12-04 21:56:16.273342000,6.273342041015625,-0.2118873447179794,-0.0832331255078315,-0.8788125514984131
2024-12-04 21:56:16.283377000,6.283376953125,-0.2234425097703933,-0.1208853349089622,-0.621925950050354
2024-12-04 21:56:16.293411800,6.293411865234375,-0.2105546742677688,-0.187838539481163,-0.3034480810165405
2024-12-04 21:56:16.303446800,6.30344677734375,-0.1797217279672622,-0.3272617161273956,0.0556733943521976
2024-12-04 21:56:16.313481700,6.313481689453125,-0.1348091065883636,-0.5027826428413391,0.4296898543834686
2024-12-04 21:56:16.323517000,6.323516845703125,-0.0933098196983337,-0.6530491709709167,0.801403284072876
2024-12-04 21:56:16.333551900,6.3335517578125,-0.0792595148086547,-0.7396777868270874,1.1608285903930664
2024-12-04 21:56:16.343586800,6.3435869140625,-0.0973178818821907,-0.7782769799232483,1.4786765575408936
2024-12-04 21:56:16.353622000,6.3536220703125,-0.1356056183576584,-0.7802173495292664,1.7368165254592896
2024-12-04 21:56:16.363656700,6.36365673828125,-0.1815470606088638,-0.7648701071739197,1.9183611869812007
2024-12-04 21:56:16.373692000,6.37369189453125,-0.2087429910898208,-0.725239634513855,2.016642808914185
2024-12-04 21:56:16.383726800,6.383726806640625,-0.2168464660644531,-0.7304796576499939,1.9983012676239007
2024-12-04 21:56:16.393761800,6.39376171875,-0.2100122720003128,-0.7448266744613647,1.7013559341430664
2024-12-04 21:56:16.403797000,6.403796875,-0.1871606707572937,-0.7532415390014648,1.2622101306915283
2024-12-04 21:56:16.413832000,6.41383203125,-0.1470353603363037,-0.6359495520591736,0.8932687640190125
2024-12-04 21:56:16.423865900,6.423865966796875,-0.1380405575037002,-0.4466105103492737,0.4387543797492981
2024-12-04 21:56:16.433900800,6.43390087890625,-0.1494684517383575,-0.2395973950624466,0.0033512604422867
2024-12-04 21:56:16.443935700,6.443935791015625,-0.158242255449295,-0.0637092441320419,-0.381560742855072
2024-12-04 21:56:16.453971000,6.453970947265625,-0.1740033626556396,0.0689779669046402,-0.7145221829414368
2024-12-04 21:56:16.464006000,6.464005859375,-0.188703715801239,0.1525385081768036,-0.9763479828834534
2024-12-04 21:56:16.474040800,6.474040771484375,-0.2243232280015945,0.1844309270381927,-1.146575093269348
2024-12-04 21:56:16.484075800,6.48407568359375,-0.2752759456634521,0.1837825626134872,-1.226433038711548
2024-12-04 21:56:16.494110700,6.49411083984375,-0.3427316844463348,0.1546523720026016,-1.2091171741485596
2024-12-04 21:56:16.504146000,6.50414599609375,-0.420387864112854,0.092448703944683,-1.0940831899642944
2024-12-04 21:56:16.514180900,6.514180908203125,-0.4852720499038696,0.0271173696964979,-0.9132632613182068
2024-12-04 21:56:16.524216000,6.524216064453125,-0.5359492897987366,-0.0375278890132904,-0.6656043529510498
2024-12-04 21:56:16.534250800,6.534250732421875,-0.5599086880683899,-0.0996570438146591,-0.3951987028121948
2024-12-04 21:56:16.544285700,6.54428564453125,-0.5577453970909119,-0.1683091521263122,-0.1270393431186676
2024-12-04 21:56:16.554321000,6.55432080078125,-0.5393901467323303,-0.2325547039508819,0.1111958548426628
2024-12-04 21:56:16.564355800,6.56435595703125,-0.5007798671722412,-0.2977745234966278,0.3042102456092834
2024-12-04 21:56:16.574390800,6.574390869140625,-0.46111661195755,-0.3600133955478668,0.4414802193641662
2024-12-04 21:56:16.584426000,6.584426025390625,-0.4260062873363495,-0.3952909708023071,0.5255402326583862
2024-12-04 21:56:16.594461000,6.5944609375,-0.4047697186470032,-0.3868396878242492,0.5685497522354126
2024-12-04 21:56:16.604494800,6.604494873046875,-0.3883785605430603,-0.3570107519626617,0.5690621733665466
2024-12-04 21:56:16.614529800,6.61452978515625,-0.380781888961792,-0.3252600133419037,0.5404753088951111
2024-12-04 21:56:16.624565000,6.62456494140625,-0.3766915500164032,-0.2838952839374542,0.4893780350685119
2024-12-04 21:56:16.634600000,6.634599853515625,-0.3856059312820434,-0.2229901403188705,0.4257290363311767
2024-12-04 21:56:16.644635000,6.644634765625,-0.4039327204227447,-0.1566247195005417,0.3566625118255615
2024-12-04 21:56:16.654669800,6.654669921875,-0.4161078929901123,-0.0914923250675201,0.277608186006546
2024-12-04 21:56:16.664704800,6.664704833984375,-0.4217420816421509,-0.039806131273508,0.1979516744613647
2024-12-04 21:56:16.674739700,6.67473974609375,-0.4165643453598022,0.0034393437672406,0.1133928447961807
2024-12-04 21:56:16.684775000,6.68477490234375,-0.4062377214431762,0.0457810908555984,0.0181891005486249
2024-12-04 21:56:16.694809900,6.694809814453125,-0.389854222536087,0.100533552467823,-0.0756079629063606
2024-12-04 21:56:16.704845000,6.704844970703125,-0.3629717230796814,0.1620068103075027,-0.1527311354875564
2024-12-04 21:56:16.714879700,6.714879638671875,-0.3330535292625427,0.2056275308132171,-0.197684496641159
2024-12-04 21:56:16.724914700,6.724914794921875,-0.2904492914676666,0.237980917096138,-0.2157224267721176
2024-12-04 21:56:16.734950000,6.734949951171875,-0.2272168099880218,0.2571583390235901,-0.2040434032678604
2024-12-04 21:56:16.744984800,6.74498486328125,-0.1483353078365326,0.2452068626880645,-0.1624762564897537
2024-12-04 21:56:16.755020300,6.755020263671875,-0.0711896494030952,0.2099271714687347,-0.0979379937052726
2024-12-04 21:56:16.765055500,6.765055419921875,0.0031447664368897,0.1838917583227157,-0.0052945772185921
2024-12-04 21:56:16.775090400,6.77509033203125,0.0641117095947265,0.181104227900505,0.1050202101469039
2024-12-04 21:56:16.785125400,6.78512548828125,0.1159141808748245,0.1707671880722046,0.2103705704212188
2024-12-04 21:56:16.795159300,6.7951591796875,0.1506907939910888,0.1332001090049743,0.2927117645740509
2024-12-04 21:56:16.805194500,6.805194580078125,0.1674210578203201,0.0679614692926406,0.3394986093044281
2024-12-04 21:56:16.815229400,6.8152294921875,0.1706836968660354,-0.0003912192769348,0.3541454374790191
2024-12-04 21:56:16.825264400,6.825264404296875,0.1653043776750564,-0.0591271109879016,0.335598349571228
2024-12-04 21:56:16.835299300,6.83529931640625,0.1569937169551849,-0.1017483323812484,0.30623459815979
2024-12-04 21:56:16.845334300,6.845334228515625,0.1430368721485138,-0.1323040872812271,0.2792604565620422
2024-12-04 21:56:16.855369200,6.855369140625,0.1237076520919799,-0.1353840380907058,0.279833048582077
2024-12-04 21:56:16.865404400,6.865404296875,0.0990401208400726,-0.1062096357345581,0.3040022850036621
2024-12-04 21:56:16.875439400,6.875439453125,0.0790778622031211,-0.0581393092870712,0.3405592441558838
2024-12-04 21:56:16.885474600,6.885474609375,0.0620147213339805,0.0031797082629054,0.3851051330566406
2024-12-04 21:56:16.895509200,6.89550927734375,0.0473502948880195,0.0634715408086776,0.4215957820415497
2024-12-04 21:56:16.905544200,6.905544189453125,0.0315939486026763,0.1254898756742477,0.4384948313236236
2024-12-04 21:56:16.915579400,6.915579345703125,0.0214204061776399,0.1823933720588684,0.4438714683055877
2024-12-04 21:56:16.925614300,6.9256142578125,0.0121201388537883,0.2388157099485397,0.4334685206413269
2024-12-04 21:56:16.935649300,6.935649169921875,-0.0018412168137729,0.2962348163127899,0.4182608127593994
2024-12-04 21:56:16.945684500,6.9456845703125,-0.0061611300334334,0.3485169112682342,0.3979123830795288
2024-12-04 21:56:16.955719200,6.95571923828125,0.003274715738371,0.4080643951892853,0.3732874691486358
2024-12-04 21:56:16.965754400,6.96575439453125,0.0207988377660512,0.4761366844177246,0.342918336391449
2024-12-04 21:56:16.975789300,6.975789306640625,0.0349372923374176,0.5176457762718201,0.3068247735500335
2024-12-04 21:56:16.985823500,6.985823486328125,0.0413097292184829,0.5136665105819702,0.2615528106689453
2024-12-04 21:56:16.995858400,6.9958583984375,0.035418551415205,0.4637492299079895,0.2120510637760162
2024-12-04 21:56:17.005893000,7.00589306640625,0.0229900926351547,0.3701313138008117,0.1636210978031158
2024-12-04 21:56:17.015928300,7.01592822265625,0.0040611429139971,0.25075563788414,0.122983917593956
2024-12-04 21:56:17.025963300,7.02596337890625,-0.0200018417090177,0.1369552314281463,0.0871970877051353
2024-12-04 21:56:17.035998500,7.03599853515625,-0.0510979741811752,0.0455179810523986,0.0635857656598091
2024-12-04 21:56:17.046033400,7.046033447265625,-0.0788424834609031,-0.0158507209271192,0.0504545122385025
2024-12-04 21:56:17.056068400,7.056068359375,-0.0951341018080711,-0.0572431683540344,0.0450472310185432
2024-12-04 21:56:17.066103600,7.066103515625,-0.0988974347710609,-0.09062509983778,0.0377236567437648
2024-12-04 21:56:17.076138200,7.07613818359375,-0.0853611156344413,-0.1158337891101837,0.0246872138231992
2024-12-04 21:56:17.086173200,7.086173095703125,-0.0608637891709804,-0.1285644322633743,-0.009341936558485
2024-12-04 21:56:17.096208400,7.09620849609375,-0.0286597814410924,-0.1317226737737655,-0.0686406791210174
2024-12-04 21:56:17.106243300,7.106243408203125,0.0084811830893158,-0.1212601885199546,-0.1307318955659866
2024-12-04 21:56:17.116278500,7.116278564453125,0.0500118508934974,-0.0952890440821647,-0.1872897148132324
2024-12-04 21:56:17.126313500,7.1263134765625,0.1010848730802536,-0.0699608922004699,-0.2342666536569595
2024-12-04 21:56:17.136348200,7.13634814453125,0.1660902500152588,-0.0505770742893219,-0.2514139413833618
2024-12-04 21:56:17.146383400,7.14638330078125,0.2325281351804733,-0.0230653993785381,-0.2529064416885376
2024-12-04 21:56:17.156418300,7.156418212890625,0.2953675389289856,0.0232943762093782,-0.2269400656223297
2024-12-04 21:56:17.166453200,7.166453369140625,0.3496121168136596,0.0707307904958725,-0.2003215849399566
2024-12-04 21:56:17.176488400,7.176488525390625,0.3765127062797546,0.1063542962074279,-0.1820539087057113
2024-12-04 21:56:17.186522400,7.1865224609375,0.3866974413394928,0.1401686072349548,-0.1860684752464294
2024-12-04 21:56:17.196557300,7.196557373046875,0.3779953122138977,0.1603252738714218,-0.2219519019126892
2024-12-04 21:56:17.206592300,7.20659228515625,0.3516539931297302,0.1323708742856979,-0.2924231290817261
2024-12-04 21:56:17.216627500,7.21662744140625,0.3188419640064239,0.0468258783221244,-0.3901140093803406
2024-12-04 21:56:17.226662400,7.226662353515625,0.2979744970798492,-0.0527609586715698,-0.4977398216724396
2024-12-04 21:56:17.236697300,7.236697265625,0.3000267446041107,-0.1203714311122894,-0.5946263670921326
2024-12-04 21:56:17.246732300,7.246732177734375,0.3268934786319732,-0.1688864678144455,-0.6608283519744873
2024-12-04 21:56:17.256767200,7.256767333984375,0.3642869293689728,-0.1809029281139373,-0.6905532479286194
2024-12-04 21:56:17.266802400,7.266802490234375,0.4187802970409393,-0.1492456942796707,-0.6880704164505005
2024-12-04 21:56:17.276837400,7.27683740234375,0.4701268374919891,-0.1023783311247825,-0.6448358297348022
2024-12-04 21:56:17.286872300,7.286872314453125,0.520379900932312,-0.1083884760737419,-0.5905967950820923
2024-12-04 21:56:17.296907500,7.296907470703125,0.5610284805297852,-0.1278772205114364,-0.5128660202026367
2024-12-04 21:56:17.306942500,7.3069423828125,0.6027847528457642,-0.1013708561658859,-0.4190671741962433
2024-12-04 21:56:17.316977200,7.31697705078125,0.6423521041870117,-0.0381775051355361,-0.3014177978038788
2024-12-04 21:56:17.327012400,7.327012451171875,0.6797772645950317,0.0349229425191879,-0.1875766962766647
2024-12-04 21:56:17.337047300,7.33704736328125,0.7155728340148926,0.1088898479938507,-0.0848521739244461
2024-12-04 21:56:17.347082500,7.34708251953125,0.7445139288902283,0.1691243201494217,-0.0143016185611486
2024-12-04 21:56:17.357117400,7.357117431640625,0.7633496522903442,0.1939963698387146,0.0285220127552747
2024-12-04 21:56:17.367152400,7.36715234375,0.7766817212104797,0.1865261942148208,0.0444779209792614
2024-12-04 21:56:17.377187300,7.377187255859375,0.7834535837173462,0.1801884025335312,0.0616760812699794
2024-12-04 21:56:17.387222300,7.38722216796875,0.7806905508041382,0.1822844594717025,0.080750323832035
2024-12-04 21:56:17.397256400,7.39725634765625,0.7617648243904114,0.177658811211586,0.1082128435373306
2024-12-04 21:56:17.407291400,7.40729150390625,0.7257482409477234,0.1727931052446365,0.1431386768817901
2024-12-04 21:56:17.417326300,7.417326416015625,0.6796896457672119,0.1789668351411819,0.1801409125328064
2024-12-04 21:56:17.427361300,7.427361328125,0.6348968744277954,0.190363347530365,0.2120989561080932
2024-12-04 21:56:17.437396200,7.437396240234375,0.5895557403564453,0.1950505077838897,0.2314886301755905
2024-12-04 21:56:17.447431400,7.447431396484375,0.5349068641662598,0.1824430674314499,0.2292514592409134
2024-12-04 21:56:17.457466400,7.45746630859375,0.4834676384925842,0.1455042213201522,0.2011599093675613
2024-12-04 21:56:17.467501300,7.467501220703125,0.4372876584529876,0.0960668995976448,0.1699775606393814
2024-12-04 21:56:17.477536500,7.47753662109375,0.4084115326404571,0.0635827258229255,0.1486696004867553
2024-12-04 21:56:17.487571200,7.4875712890625,0.3935329914093017,0.0497430600225925,0.1360519230365753
2024-12-04 21:56:17.497606400,7.4976064453125,0.3741097450256347,0.0244531501084566,0.1262211352586746
2024-12-04 21:56:17.507641300,7.507641357421875,0.3418570160865783,0.0005781599320471,0.1194917187094688
2024-12-04 21:56:17.517676300,7.51767626953125,0.300302118062973,-0.0159504823386669,0.1149917691946029
2024-12-04 21:56:17.527711500,7.52771142578125,0.2516078352928161,-0.0273628793656826,0.1052471920847892
2024-12-04 21:56:17.537746400,7.537746337890625,0.2049817442893982,-0.0312790609896183,0.097076877951622
2024-12-04 21:56:17.547781400,7.547781494140625,0.1735364347696304,-0.016969721764326,0.0905994921922683
2024-12-04 21:56:17.557816300,7.55781640625,0.1571510583162307,0.0246869102120399,0.0911377221345901
2024-12-04 21:56:17.567851300,7.567851318359375,0.1563574820756912,0.0866077244281768,0.1083521246910095
2024-12-04 21:56:17.577886500,7.577886474609375,0.1772419959306717,0.1606827527284622,0.1324042081832885
2024-12-04 21:56:17.587921400,7.58792138671875,0.1990255415439605,0.2281838804483413,0.1566514372825622
2024-12-04 21:56:17.597956400,7.597956298828125,0.2214062213897705,0.2858692705631256,0.1781615316867828
2024-12-04 21:56:17.607991600,7.607991455078125,0.259805828332901,0.3492633700370788,0.2015984952449798
2024-12-04 21:56:17.618025200,7.618025146484375,0.3225072920322418,0.3987627327442169,0.2372947037220001
2024-12-04 21:56:17.628060400,7.628060302734375,0.403783231973648,0.419879674911499,0.2805683314800262
2024-12-04 21:56:17.638095400,7.638095458984375,0.4831371605396271,0.4100046753883362,0.3332445919513702
2024-12-04 21:56:17.648130300,7.64813037109375,0.5428428649902344,0.3684561550617218,0.3884593844413757
2024-12-04 21:56:17.658165500,7.65816552734375,0.5672802925109863,0.2801776826381683,0.4372868537902832
2024-12-04 21:56:17.668200200,7.6682001953125,0.5722705125808716,0.2249415516853332,0.4880755245685577
2024-12-04 21:56:17.678235400,7.6782353515625,0.5779520869255066,0.2248123884201049,0.5483393669128418
2024-12-04 21:56:17.688270300,7.688270263671875,0.5901930332183838,0.2744333148002624,0.6029927134513855
2024-12-04 21:56:17.698305300,7.69830517578125,0.6097795367240906,0.3742406070232391,0.6558391451835632
2024-12-04 21:56:17.708340500,7.708340576171875,0.6468578577041626,0.5127002000808716,0.6971457004547119
2024-12-04 21:56:17.718375400,7.71837548828125,0.6929563879966736,0.6426771283149719,0.7333441376686096
2024-12-04 21:56:17.728410400,7.728410400390625,0.7361041903495789,0.6953304409980774,0.7448052763938904
2024-12-04 21:56:17.738445300,7.7384453125,0.7587178945541382,0.6551387906074524,0.7321459650993347
2024-12-04 21:56:17.748480300,7.748480224609375,0.7536326050758362,0.541758120059967,0.6854941248893738
2024-12-04 21:56:17.758515700,7.758515625,0.7200469374656677,0.4059957861900329,0.6229529976844788
2024-12-04 21:56:17.768550700,7.768550537109375,0.6757652163505554,0.2976614534854889,0.5595191717147827
2024-12-04 21:56:17.778585600,7.778585693359375,0.6087164282798767,0.2155570238828659,0.517505943775177
2024-12-04 21:56:17.788620800,7.788620849609375,0.5336402654647827,0.1568570584058761,0.4917580485343933
2024-12-04 21:56:17.798655700,7.79865576171875,0.4503839910030365,0.108480729162693,0.4532367289066314
2024-12-04 21:56:17.808690700,7.808690673828125,0.3665881752967834,0.0523661933839321,0.3939771652221679
2024-12-04 21:56:17.818726000,7.818725830078125,0.290440946817398,-0.0094750681892037,0.3245086073875427
2024-12-04 21:56:17.828760600,7.828760498046875,0.2174538820981979,-0.0933743268251419,0.2483079433441162
2024-12-04 21:56:17.838794800,7.838794677734375,0.1376573145389557,-0.2133492082357406,0.1708757281303405
2024-12-04 21:56:17.848829700,7.84882958984375,0.0577608421444892,-0.3611293733119964,0.1116814613342285
2024-12-04 21:56:17.858865000,7.858864990234375,-0.003554712049663,-0.4898425936698913,0.0827677845954895
2024-12-04 21:56:17.868899800,7.86889990234375,-0.0423359461128711,-0.5751391053199768,0.0787102654576301
2024-12-04 21:56:17.878934500,7.8789345703125,-0.067709743976593,-0.6094678044319153,0.0848222225904464
2024-12-04 21:56:17.888969700,7.8889697265625,-0.0860317647457122,-0.581125795841217,0.1062953695654869
2024-12-04 21:56:17.899004700,7.899004638671875,-0.1033558920025825,-0.5226576924324036,0.1207568645477294
2024-12-04 21:56:17.909039600,7.90903955078125,-0.1279554963111877,-0.4526782035827636,0.1080912500619888
2024-12-04 21:56:17.919074800,7.91907470703125,-0.1516128927469253,-0.3577769696712494,0.0716136693954467
2024-12-04 21:56:17.929109800,7.92910986328125,-0.1744457781314849,-0.2365505546331405,0.0202170554548501
2024-12-04 21:56:17.939144700,7.939144775390625,-0.207538217306137,-0.1196207553148269,-0.0390326827764511
2024-12-04 21:56:17.949179600,7.9491796875,-0.2536931931972503,-0.0331672988831996,-0.1027502194046974
2024-12-04 21:56:17.959214600,7.959214599609375,-0.3338058590888977,0.0140564031898975,-0.1877215653657913
2024-12-04 21:56:17.969249800,7.969249755859375,-0.4327609539031982,0.0019743198063224,-0.2973840832710266
2024-12-04 21:56:17.979284700,7.97928466796875,-0.5217906832695007,-0.0326017662882804,-0.4147802293300628
2024-12-04 21:56:17.989319700,7.989319580078125,-0.5873052477836609,-0.0588819533586502,-0.5193037986755371
2024-12-04 21:56:17.999355000,7.99935498046875,-0.6531364321708679,-0.1028784364461898,-0.58655846118927
2024-12-04 21:56:18.009389600,8.0093896484375,-0.7228585481643677,-0.1734792739152908,-0.6173496246337891
2024-12-04 21:56:18.019424800,8.0194248046875,-0.7834923267364502,-0.2541224360466003,-0.614288330078125
2024-12-04 21:56:18.029459700,8.029459716796875,-0.8277782797813416,-0.3245053589344024,-0.5741388201713562
2024-12-04 21:56:18.039494700,8.03949462890625,-0.8382274508476257,-0.3414286971092224,-0.5063126683235168
2024-12-04 21:56:18.049529900,8.04952978515625,-0.8105247616767883,-0.2990562915802002,-0.4199170768260956
2024-12-04 21:56:18.059564800,8.059564697265625,-0.7419853806495667,-0.213717982172966,-0.325971394777298
2024-12-04 21:56:18.069599700,8.069599853515625,-0.6452588438987732,-0.1040450856089592,-0.2315850555896759
2024-12-04 21:56:18.079634700,8.079634765625,-0.5379558205604553,0.0041399761103093,-0.1372335255146026
2024-12-04 21:56:18.089668900,8.0896689453125,-0.4419584572315216,0.0783778429031372,-0.0716057047247886
2024-12-04 21:56:18.099703800,8.099703857421876,-0.3704523146152496,0.1026059538125991,-0.0246983841061592
2024-12-04 21:56:18.109738800,8.10973876953125,-0.3330021500587463,0.0734695866703987,-0.0133453188464045
2024-12-04 21:56:18.119773700,8.119773681640625,-0.3264236152172088,0.0107516143471002,-0.0222509279847145
2024-12-04 21:56:18.129808600,8.12980859375,-0.3339518010616302,-0.0534788556396961,-0.0420932248234748
2024-12-04 21:56:18.139843600,8.139843505859375,-0.3520389199256897,-0.1090065687894821,-0.0540489554405212
2024-12-04 21:56:18.149878800,8.149878662109375,-0.3852184414863586,-0.1390840709209442,-0.055062249302864
2024-12-04 21:56:18.159913700,8.159913818359374,-0.4427493810653686,-0.1478919386863708,-0.0421568378806114
2024-12-04 21:56:18.169949000,8.169948974609374,-0.514576256275177,-0.1439392268657684,-0.0278810486197471
2024-12-04 21:56:18.179983600,8.179983642578126,-0.5757301449775696,-0.1395095884799957,-0.0244141463190317
2024-12-04 21:56:18.190018600,8.1900185546875,-0.6294870376586914,-0.1319715827703476,-0.0376493223011493
2024-12-04 21:56:18.200053800,8.2000537109375,-0.6568496823310852,-0.1142040342092514,-0.0666833743453025
2024-12-04 21:56:18.210088700,8.210088623046875,-0.6585496068000793,-0.0899015963077545,-0.0994741171598434
2024-12-04 21:56:18.220123600,8.22012353515625,-0.6465137004852295,-0.0713444277644157,-0.1309441477060318
2024-12-04 21:56:18.230158800,8.230158935546875,-0.6199641823768616,-0.0568258576095104,-0.1585423499345779
2024-12-04 21:56:18.240193500,8.240193603515625,-0.585791289806366,-0.0487761870026588,-0.1674767285585403
2024-12-04 21:56:18.250228700,8.250228759765625,-0.5504952669143677,-0.0442751049995422,-0.1569060981273651
2024-12-04 21:56:18.260263700,8.260263671875,-0.5176132321357727,-0.041918471455574,-0.1233097910881042
2024-12-04 21:56:18.270298600,8.270298583984374,-0.4857474863529205,-0.0393561273813247,-0.0726608783006668
2024-12-04 21:56:18.280333800,8.280333740234376,-0.4485612213611603,-0.0216362550854682,-0.0065982355736196
2024-12-04 21:56:18.290368800,8.29036865234375,-0.4184041321277618,0.0049307430163025,0.0579685419797897
2024-12-04 21:56:18.300403700,8.30040380859375,-0.3796639144420624,0.0132906716316938,0.1035115271806716
2024-12-04 21:56:18.310438700,8.310438720703125,-0.3425522446632385,0.0089417025446891,0.1339698731899261
2024-12-04 21:56:18.320473600,8.3204736328125,-0.3021928369998932,0.0184254869818687,0.1521296948194503
2024-12-04 21:56:18.330508800,8.3305087890625,-0.2623847126960754,0.0400791130959987,0.1542471796274185
2024-12-04 21:56:18.340543700,8.340543701171875,-0.2149441987276077,0.04861880838871,0.1580789387226104
2024-12-04 21:56:18.350578000,8.350577880859374,-0.1686912328004837,0.0448911376297473,0.166380763053894
2024-12-04 21:56:18.360612600,8.360612548828126,-0.1295233219861984,0.0226446874439716,0.1856942772865295
2024-12-04 21:56:18.370647600,8.3706474609375,-0.0971568524837493,0.0067842006683349,0.2165040969848632
2024-12-04 21:56:18.380682800,8.380682861328125,-0.0733231604099273,0.0045910878106951,0.258398026227951
2024-12-04 21:56:18.390717700,8.3907177734375,-0.0596893951296806,0.0031089961994439,0.307819128036499
2024-12-04 21:56:18.400753000,8.4007529296875,-0.0571972094476223,0.0059924004599452,0.3558018207550049
2024-12-04 21:56:18.410787800,8.410787841796875,-0.063393048942089,-0.0119143538177013,0.3905273079872131
2024-12-04 21:56:18.420822500,8.420822509765625,-0.0782039538025856,-0.0578027516603469,0.4185927510261535
2024-12-04 21:56:18.430857700,8.430857666015624,-0.1010807454586029,-0.0959616005420684,0.4300303757190704
2024-12-04 21:56:18.440892700,8.440892578125,-0.1245530471205711,-0.1189553365111351,0.4283893406391144
2024-12-04 21:56:18.450927600,8.450927734375,-0.1435299515724182,-0.1195499077439308,0.4192108511924743
2024-12-04 21:56:18.460962800,8.460962890625,-0.1630975306034088,-0.1092706397175788,0.4118722379207611
2024-12-04 21:56:18.470997800,8.470997802734376,-0.1745408773422241,-0.0887199491262435,0.4096638262271881
2024-12-04 21:56:18.481032700,8.48103271484375,-0.1666651219129562,-0.052835714071989,0.4062635004520416
2024-12-04 21:56:18.491067600,8.491067626953125,-0.1414516270160675,-0.0095447469502687,0.4057099223136902
2024-12-04 21:56:18.501102600,8.5011025390625,-0.1009209752082824,0.0270103327929973,0.4060137867927551
2024-12-04 21:56:18.511137800,8.5111376953125,-0.0516767390072345,0.0571971908211708,0.4023335576057434
2024-12-04 21:56:18.521172700,8.5211728515625,-0.0069324378855526,0.0638013035058975,0.3971891403198242
2024-12-04 21:56:18.531207700,8.531207763671874,0.0302897915244102,0.0498650148510932,0.377637505531311
2024-12-04 21:56:18.541243000,8.541242919921874,0.0533093586564064,0.01761413551867,0.3489768207073211
2024-12-04 21:56:18.551277600,8.551277587890626,0.0649817287921905,-0.009562749415636,0.3207708597183227
2024-12-04 21:56:18.561312800,8.561312744140626,0.067947156727314,-0.0279851667582988,0.2963456809520721
2024-12-04 21:56:18.571347700,8.57134765625,0.0707157552242279,-0.023145318031311,0.2929332256317138
2024-12-04 21:56:18.581382700,8.581382568359375,0.0634037852287292,0.022465843707323,0.31006720662117
2024-12-04 21:56:18.591417900,8.59141796875,0.0578814595937728,0.0693724602460861,0.3323823511600494
2024-12-04 21:56:18.601452800,8.601452880859375,0.0497747994959354,0.0890436321496963,0.327450692653656
2024-12-04 21:56:18.611487700,8.61148779296875,0.0439027771353721,0.0868729129433631,0.2810211777687073
2024-12-04 21:56:18.621522700,8.621522705078124,0.0350019596517086,0.0820981338620185,0.200303167104721
2024-12-04 21:56:18.631556900,8.631556884765626,0.0296903029084205,0.0863070636987686,0.100701667368412
2024-12-04 21:56:18.641591800,8.641591796875,0.0309758111834526,0.105542816221714,0.005305103957653
2024-12-04 21:56:18.651626800,8.651626708984375,0.0330762341618537,0.1392609179019928,-0.0808720886707305
2024-12-04 21:56:18.661661700,8.66166162109375,0.0431682839989662,0.1824699193239212,-0.1615586727857589
2024-12-04 21:56:18.671696600,8.671696533203125,0.0621187984943389,0.2376650124788284,-0.2393360733985901
2024-12-04 21:56:18.681731600,8.681731689453125,0.0833535194396972,0.2650497853755951,-0.324296236038208
2024-12-04 21:56:18.691766800,8.691766845703125,0.1172712594270706,0.2402750998735427,-0.3977411687374115
2024-12-04 21:56:18.701801700,8.7018017578125,0.1657184213399887,0.1753429770469665,-0.4474474489688873
2024-12-04 21:56:18.711837000,8.7118369140625,0.2173235714435577,0.1172011122107505,-0.4711461961269378
2024-12-04 21:56:18.721871600,8.72187158203125,0.2620678842067718,0.0649096816778183,-0.4758823812007904
2024-12-04 21:56:18.731906600,8.731906494140626,0.2882717847824096,0.0316810086369514,-0.4617410600185394
2024-12-04 21:56:18.741941800,8.741941650390626,0.3044379651546478,0.0301619451493024,-0.4503509700298309
2024-12-04 21:56:18.751976700,8.751976806640625,0.3087248504161834,0.0711187198758125,-0.4635704457759857
2024-12-04 21:56:18.762011600,8.76201171875,0.2998528182506561,0.1092533245682716,-0.5231727361679077
2024-12-04 21:56:18.772046800,8.772046875,0.2837175130844116,0.1347464770078659,-0.6319481730461121
2024-12-04 21:56:18.782081800,8.782081787109375,0.2574693858623504,0.1037725880742073,-0.7769517302513123
2024-12-04 21:56:18.792117000,8.792116943359375,0.2403905391693115,0.0208761543035507,-0.9190056920051576
2024-12-04 21:56:18.802152000,8.80215185546875,0.2762276232242584,-0.0616850368678569,-1.01124370098114
2024-12-04 21:56:18.812187000,8.812186767578124,0.3763241469860077,-0.1113404184579849,-1.0199545621871948
2024-12-04 21:56:18.822221800,8.822221923828126,0.5322039723396301,-0.0795686393976211,-0.9191685318946838
2024-12-04 21:56:18.832256800,8.8322568359375,0.7096065282821655,0.0124274659901857,-0.7387406826019287
2024-12-04 21:56:18.842291700,8.842291748046875,0.8800477981567383,0.1271388679742813,-0.5263213515281677
2024-12-04 21:56:18.852327000,8.852326904296875,1.0216280221939087,0.222858116030693,-0.3250238001346588
2024-12-04 21:56:18.862361900,8.86236181640625,1.106341004371643,0.3042331337928772,-0.1751807928085327
2024-12-04 21:56:18.872397000,8.87239697265625,1.136365294456482,0.3488637208938598,-0.0903454944491386
2024-12-04 21:56:18.882431700,8.882431640625,1.108269453048706,0.3576223254203796,-0.0581886209547519
2024-12-04 21:56:18.892466700,8.892466796875,1.0488686561584473,0.3677450716495514,-0.0366694405674934
2024-12-04 21:56:18.902502000,8.902501953125,0.977519392967224,0.4004763960838318,-0.0197722166776657
2024-12-04 21:56:18.912536800,8.912536865234374,0.9177061319351196,0.4559351205825805,0.0194452293217182
2024-12-04 21:56:18.922571000,8.922571044921876,0.8723903298377991,0.5320490598678589,0.0723441243171691
2024-12-04 21:56:18.932605700,8.932605712890625,0.8443052172660828,0.6265690922737122,0.1305938512086868
2024-12-04 21:56:18.942641000,8.942640869140625,0.8366544842720032,0.7042356133460999,0.1732627600431442
2024-12-04 21:56:18.952675800,8.95267578125,0.8425032496452332,0.7552714943885803,0.1924316585063934
2024-12-04 21:56:18.962710800,8.962710693359375,0.8418468236923218,0.7762688994407654,0.18591970205307
2024-12-04 21:56:18.972746000,8.97274609375,0.820173978805542,0.7506060600280762,0.1480612307786941
2024-12-04 21:56:18.982781000,8.982781005859374,0.767707347869873,0.6966789364814758,0.1138931363821029
2024-12-04 21:56:18.992815600,8.992815673828124,0.6932965517044067,0.6385645270347595,0.0896585658192634
2024-12-04 21:56:19.002850800,9.002850830078126,0.5947592854499817,0.5984706282615662,0.0838273093104362
2024-12-04 21:56:19.012885800,9.0128857421875,0.4876061975955963,0.5712530016899109,0.0849136784672737
2024-12-04 21:56:19.022921000,9.0229208984375,0.3893211781978607,0.5439335107803345,0.0810920447111129
2024-12-04 21:56:19.032956000,9.032955810546875,0.3027452528476715,0.5059413313865662,0.0604937076568603
2024-12-04 21:56:19.042990800,9.042990966796877,0.2270829826593399,0.4588771462440491,0.0201641302555799
2024-12-04 21:56:19.053026000,9.053026123046877,0.1732437312602996,0.4163148999214172,-0.0370431169867515
2024-12-04 21:56:19.063060700,9.063060791015625,0.1415731608867645,0.3814871311187744,-0.0845962539315223
2024-12-04 21:56:19.073095700,9.073095703125,0.1332587450742721,0.3889351487159729,-0.1144835799932479
2024-12-04 21:56:19.083131000,9.083130859375,0.1447995603084564,0.4356773495674133,-0.1051398813724517
2024-12-04 21:56:19.093165800,9.093165771484376,0.1549560874700546,0.5246627926826477,-0.0520536005496978
2024-12-04 21:56:19.103201000,9.103200927734376,0.1560258716344833,0.6402245163917542,0.0340237580239772
2024-12-04 21:56:19.113236000,9.113236083984376,0.1408341377973556,0.7327279448509216,0.1279523074626922
2024-12-04 21:56:19.123270700,9.123270751953124,0.1211552396416664,0.790002167224884,0.2077443450689315
2024-12-04 21:56:19.133305900,9.133305908203123,0.1019128188490867,0.8200969099998474,0.2677903175354004
2024-12-04 21:56:19.143340800,9.1433408203125,0.1011450290679931,0.8115286827087402,0.294529527425766
2024-12-04 21:56:19.153375700,9.153375732421877,0.1481170654296875,0.6627844572067261,0.0901521071791648
2024-12-04 21:56:19.163411000,9.163410888671876,0.2180524617433548,0.3924437761306762,-0.1676434725522995
2024-12-04 21:56:19.173446000,9.17344580078125,0.2203875333070755,0.1524817943572998,-0.2487998902797699
2024-12-04 21:56:19.183480800,9.183480712890624,0.2181318253278732,0.0722173228859901,-0.1271754503250122
2024-12-04 21:56:19.193515800,9.193515869140626,0.2247010618448257,0.0454590916633605,0.0646379292011261
2024-12-04 21:56:19.203550700,9.20355078125,0.2155515104532241,0.0172309167683124,0.2137065082788467
2024-12-04 21:56:19.213586000,9.2135859375,0.1891230791807174,0.007314926944673,0.2996895313262939
2024-12-04 21:56:19.223620900,9.223620849609375,0.1656925827264785,-0.0172881539911031,0.3110678791999817
2024-12-04 21:56:19.233655800,9.23365576171875,0.1512095183134079,-0.0886077582836151,0.2648024260997772
2024-12-04 21:56:19.243691000,9.24369091796875,0.1297846585512161,-0.1907389163970947,0.1574794054031372
2024-12-04 21:56:19.253725000,9.253724853515624,0.1014566197991371,-0.3206484913825989,0.0213371366262435
2024-12-04 21:56:19.263760000,9.263759765625,0.0724169760942459,-0.4616096317768097,-0.1094134226441383
2024-12-04 21:56:19.273794800,9.273794921875,0.0415895581245422,-0.599295973777771,-0.217210367321968
2024-12-04 21:56:19.283830000,9.283830078125,-0.0110502177849411,-0.731931746006012,-0.3015055358409881
2024-12-04 21:56:19.293865000,9.293864990234376,-0.0800178349018096,-0.8423133492469788,-0.3498990535736084
2024-12-04 21:56:19.303899600,9.303899658203123,-0.1664858758449554,-0.902435541152954,-0.3502306342124939
2024-12-04 21:56:19.313934800,9.313934814453123,-0.2689448595046997,-0.8618437051773071,-0.3022093772888183
2024-12-04 21:56:19.323969800,9.3239697265625,-0.3853532373905182,-0.7058807611465454,-0.2213515490293502
2024-12-04 21:56:19.334005000,9.3340048828125,-0.5177424550056458,-0.4508403539657593,-0.1202013120055198
2024-12-04 21:56:19.344040000,9.3440400390625,-0.6453494429588318,-0.1600610017776489,-0.0351322256028652
2024-12-04 21:56:19.354075000,9.354074951171874,-0.7594597339630127,0.1051185205578804,-0.0085326507687568
2024-12-04 21:56:19.364109800,9.36410986328125,-0.8402467370033264,0.3114855289459228,-0.047356478869915
2024-12-04 21:56:19.374144800,9.374144775390626,-0.8719531893730164,0.4239708185195923,-0.150249183177948
2024-12-04 21:56:19.384179700,9.3841796875,-0.85471510887146,0.4013131558895111,-0.2654884159564972
2024-12-04 21:56:19.394215000,9.39421484375,-0.8281794190406799,0.2337560653686523,-0.3487470746040344
2024-12-04 21:56:19.404249900,9.404249755859375,-0.8308276534080505,-0.0160969011485576,-0.3784849941730499
2024-12-04 21:56:19.414285000,9.41428515625,-0.8725590705871582,-0.2827455103397369,-0.3428457379341125
2024-12-04 21:56:19.424319700,9.42431982421875,-0.9558696746826172,-0.5172783732414246,-0.2859571576118469
2024-12-04 21:56:19.434354700,9.434354736328125,-1.0644630193710327,-0.6815040111541748,-0.2579642236232757
2024-12-04 21:56:19.444390000,9.444389892578124,-1.160139799118042,-0.7311187386512756,-0.2710288763046264
2024-12-04 21:56:19.454424800,9.4544248046875,-1.247839331626892,-0.7367256283760071,-0.3560879230499267
2024-12-04 21:56:19.464459800,9.464459716796876,-1.315698742866516,-0.7370585203170776,-0.5155145525932312
2024-12-04 21:56:19.474495000,9.474494873046876,-1.3436728715896606,-0.7376599311828613,-0.7211167812347412
2024-12-04 21:56:19.484529700,9.48452978515625,-1.353801131248474,-0.7343136668205261,-0.9177491664886476
2024-12-04 21:56:19.494564900,9.49456494140625,-1.384074091911316,-0.7681834697723389,-1.0973961353302002
2024-12-04 21:56:19.504599800,9.504599853515623,-1.4225804805755615,-0.7365259528160095,-1.2447224855422974
2024-12-04 21:56:19.514634800,9.514634765625,-1.4591275453567505,-0.6526623368263245,-1.357799768447876
2024-12-04 21:56:19.524670000,9.524669921875,-1.4900578260421753,-0.6141572594642639,-1.4401415586471558
2024-12-04 21:56:19.534705000,9.534704833984376,-1.531105875968933,-0.3712840676307678,-1.8007336854934692
2024-12-04 21:56:19.544739800,9.54473974609375,-1.5113286972045898,-0.0950421020388603,-1.7967722415924072
2024-12-04 21:56:19.554774800,9.55477490234375,-1.369654655456543,0.0466808900237083,-1.7790018320083618
2024-12-04 21:56:19.564809700,9.564809814453126,-1.1908066272735596,-0.1859734058380127,-1.7548555135726929
2024-12-04 21:56:19.574845000,9.574844970703126,-0.9482704401016236,-0.5054563879966736,-1.726290941238403
2024-12-04 21:56:19.584879900,9.5848798828125,-0.656997561454773,-0.7157188057899475,-1.6109845638275146
2024-12-04 21:56:19.594914800,9.594914794921875,-0.3270017802715301,-0.7570672035217285,-1.382311463356018
2024-12-04 21:56:19.604950000,9.604949951171877,0.0403914041817188,-0.6607904434204102,-1.06347918510437
2024-12-04 21:56:19.614984700,9.614984619140625,0.4344731569290161,-0.4932384192943573,-0.7097699642181396
2024-12-04 21:56:19.625019000,9.625018798828124,0.7737923860549927,-0.3555149137973785,-0.3686625063419342
2024-12-04 21:56:19.635053800,9.6350537109375,1.0170711278915403,-0.3189730048179626,-0.0603567361831665
2024-12-04 21:56:19.645089000,9.645089111328126,1.1316325664520264,-0.4848655462265014,0.1566887646913528
2024-12-04 21:56:19.655124000,9.6551240234375,1.1273802518844604,-0.923358917236328,0.2252495288848877
2024-12-04 21:56:19.665158700,9.66515869140625,1.062244892120361,-1.4570826292037964,0.1594715714454651
2024-12-04 21:56:19.675193900,9.67519384765625,1.0083303451538086,-1.7713515758514404,0.1221303194761276
2024-12-04 21:56:19.685228800,9.685228759765623,1.020717740058899,-1.906460165977478,0.1960157305002212
2024-12-04 21:56:19.695263700,9.695263671875,1.0807358026504517,-1.73689067363739,0.2292156368494033
2024-12-04 21:56:19.705299000,9.705298828125,1.158400535583496,-1.1417170763015747,0.1258762031793594
2024-12-04 21:56:19.715334000,9.715333984375,1.1899526119232178,-0.8356441855430603,0.0209744572639465
2024-12-04 21:56:19.725368800,9.725368896484374,1.155962347984314,-0.6369140148162842,-0.1784643530845642
2024-12-04 21:56:19.735403800,9.73540380859375,1.0484503507614136,-0.7551242113113403,-0.4524162411689758
2024-12-04 21:56:19.745438700,9.745438720703126,0.8808695673942566,-0.9768975973129272,-0.5900231003761292
2024-12-04 21:56:19.755474000,9.755473876953126,0.6785585284233093,-1.0356253385543823,-0.6385940909385681
2024-12-04 21:56:19.765508000,9.765508056640623,0.4826777279376983,-0.8350619077682495,-0.6038739681243896
2024-12-04 21:56:19.775543300,9.775543212890623,0.287546306848526,-0.493678867816925,-0.4420099854469299
2024-12-04 21:56:19.785578000,9.785577880859377,0.1147359311580658,-0.1757190227508545,-0.177056074142456
2024-12-04 21:56:19.795613000,9.795613037109376,-0.0571556724607944,0.0342792458832263,0.1131394803524017
2024-12-04 21:56:19.805648100,9.805648193359374,-0.2107516229152679,0.0946824103593826,0.3537473082542419
2024-12-04 21:56:19.815683000,9.81568310546875,-0.3432023227214813,0.0536908507347106,0.5237058401107788
2024-12-04 21:56:19.825718300,9.82571826171875,-0.4689397513866424,-0.0017335260054096,0.6407685279846191
2024-12-04 21:56:19.835753200,9.835753173828126,-0.5904890894889832,-0.0672797337174415,0.7067624926567078
2024-12-04 21:56:19.845788000,9.845787841796875,-0.6991434097290039,-0.1040675789117813,0.7260440587997437
2024-12-04 21:56:19.855823000,9.855822998046875,-0.76235032081604,-0.0693922713398933,0.7161762714385986
2024-12-04 21:56:19.865858000,9.865858154296877,-0.7724594473838806,0.0259406343102455,0.6774458885192871
2024-12-04 21:56:19.875893000,9.87589306640625,-0.7347599864006042,0.1411434412002563,0.6027883887290955
2024-12-04 21:56:19.885928200,9.88592822265625,-0.6669710874557495,0.2374438792467117,0.4998513162136078
2024-12-04 21:56:19.895963100,9.895963134765625,-0.5669840574264526,0.300025075674057,0.3828398883342743
2024-12-04 21:56:19.905998000,9.905998046875,-0.4510957896709442,0.3250020742416382,0.2859335839748382
2024-12-04 21:56:19.916033000,9.916032958984376,-0.339219868183136,0.3081144988536834,0.2103670090436935
2024-12-04 21:56:19.926068000,9.92606787109375,-0.2462598085403442,0.2640213370323181,0.1720428019762039
2024-12-04 21:56:19.936103200,9.936103271484376,-0.1888790726661682,0.2154348045587539,0.1688368469476699
2024-12-04 21:56:19.946138000,9.94613818359375,-0.1680398434400558,0.1647479236125946,0.1840778440237045
2024-12-04 21:56:19.956173000,9.956173095703123,-0.1783002018928527,0.106150172650814,0.2036187052726745
2024-12-04 21:56:19.966208000,9.9662080078125,-0.21171435713768,0.0372094549238681,0.2331630289554596
2024-12-04 21:56:19.976243000,9.976242919921877,-0.2529150545597076,-0.033363327383995,0.2672536075115204
2024-12-04 21:56:19.986278100,9.986278076171876,-0.2971877157688141,-0.0881528034806251,0.302243024110794
2024-12-04 21:56:19.996313000,9.99631298828125,-0.3303187787532806,-0.1249317303299903,0.3354511559009552
2024-12-04 21:56:20.006348000,10.00634814453125,-0.3555402457714081,-0.1563011109828949,0.3653211891651153
2024-12-04 21:56:20.016383200,10.01638330078125,-0.3703751266002655,-0.1829256862401962,0.3775871396064758
2024-12-04 21:56:20.026418200,10.026418212890626,-0.371120274066925,-0.1944747418165207,0.3955515027046203
2024-12-04 21:56:20.036453000,10.036453125,-0.349527895450592,-0.1988209933042526,0.41933473944664
2024-12-04 21:56:20.046488000,10.046488037109375,-0.3143959939479828,-0.1932416707277298,0.4526080191135406
2024-12-04 21:56:20.056523000,10.05652294921875,-0.2596278190612793,-0.182943657040596,0.4976065456867218
2024-12-04 21:56:20.066558200,10.06655810546875,-0.18917016685009,-0.1671252697706222,0.5393311381340027
2024-12-04 21:56:20.076592000,10.076592041015624,-0.1242667958140373,-0.1390739381313324,0.5590978860855103
2024-12-04 21:56:20.086627000,10.086626953125,-0.0734723210334777,-0.1027353703975677,0.5501582026481628
2024-12-04 21:56:20.096662000,10.096662109375,-0.0422211922705173,-0.0617315471172332,0.507887601852417
2024-12-04 21:56:20.106697000,10.106697021484376,-0.0309898424893617,-0.03855512291193,0.4389032125473022
2024-12-04 21:56:20.116732200,10.116732177734375,-0.0298502780497074,-0.0198437999933958,0.3660717904567718
2024-12-04 21:56:20.126767000,10.12676708984375,-0.0298161879181861,-0.0076087052002549,0.2958253026008606
2024-12-04 21:56:20.136802300,10.13680224609375,-0.0311341863125562,0.0088123949244618,0.2288106977939605
2024-12-04 21:56:20.146837000,10.1468369140625,-0.0206764843314886,0.0095556834712624,0.1683409661054611
2024-12-04 21:56:20.156872000,10.156871826171876,-0.0004449869738891,0.0081361606717109,0.1205012202262878
2024-12-04 21:56:20.166907100,10.1669072265625,0.0129421912133693,0.0062019065953791,0.0676784887909889
2024-12-04 21:56:20.176942000,10.176942138671874,0.0214366111904382,-0.0026430238503962,0.0129338335245847
2024-12-04 21:56:20.186977000,10.18697705078125,0.0315188057720661,-0.0046438565477728,-0.0331772044301033
2024-12-04 21:56:20.197012200,10.19701220703125,0.0378222428262233,-0.0310780368745327,-0.0849484577775001
2024-12-04 21:56:20.207047000,10.207046875,0.0475939139723777,-0.0647089630365371,-0.1295172572135925
2024-12-04 21:56:20.217082000,10.21708203125,0.0647593215107917,-0.0900700837373733,-0.1786198168992996
2024-12-04 21:56:20.227117000,10.227116943359375,0.092414915561676,-0.1088336557149887,-0.2271561920642852
2024-12-04 21:56:20.237152000,10.237152099609377,0.1314315497875213,-0.0899117439985275,-0.2770874500274658
2024-12-04 21:56:20.247187200,10.247187255859377,0.1867414116859436,-0.0305456221103668,-0.3008838593959808
2024-12-04 21:56:20.257222100,10.25722216796875,0.2613836824893951,0.0653484165668487,-0.2961218655109405
2024-12-04 21:56:20.267257000,10.267257080078124,0.3401658535003662,0.1440328359603881,-0.278342604637146
2024-12-04 21:56:20.277292000,10.2772919921875,0.4023514688014984,0.1766798794269561,-0.2697277069091797
2024-12-04 21:56:20.287327000,10.287326904296876,0.4417747557163238,0.1612380743026733,-0.3036513328552246
2024-12-04 21:56:20.297362200,10.297362060546876,0.454837292432785,0.0938295423984527,-0.3896657824516296
2024-12-04 21:56:20.307397000,10.307397216796875,0.4346699714660644,-0.012499826028943,-0.5130401849746704
2024-12-04 21:56:20.317432000,10.31743212890625,0.3999998867511749,-0.1263385713100433,-0.6450440883636475
2024-12-04 21:56:20.327467300,10.32746728515625,0.3666632175445556,-0.2069897502660751,-0.7311161160469055
2024-12-04 21:56:20.337502000,10.337501953125,0.3508155643939972,-0.2448992729187011,-0.7487851977348328
2024-12-04 21:56:20.347537200,10.347537109375,0.3547583818435669,-0.2581612765789032,-0.7145939469337463
2024-12-04 21:56:20.357572000,10.357572021484376,0.3801659941673279,-0.2524484992027282,-0.6280469298362732
2024-12-04 21:56:20.367607000,10.36760693359375,0.4287841320037842,-0.2238892912864685,-0.5039737224578857
2024-12-04 21:56:20.377642200,10.377642333984374,0.4892480075359344,-0.1442828774452209,-0.3646630048751831
2024-12-04 21:56:20.387677200,10.38767724609375,0.5706259608268738,-0.0226845350116491,-0.223046213388443
2024-12-04 21:56:20.397712000,10.3977119140625,0.6579259634017944,0.0947288647294044,-0.1004612892866134
2024-12-04 21:56:20.407747000,10.4077470703125,0.7273972034454346,0.165356695652008,-0.0141082936897873
2024-12-04 21:56:20.417782000,10.417781982421875,0.779751181602478,0.2061268836259842,0.038901250809431
2024-12-04 21:56:20.427817200,10.427817138671877,0.8026882410049438,0.2159294486045837,0.0597332939505577
2024-12-04 21:56:20.437852200,10.43785205078125,0.8028013706207275,0.1894842088222503,0.0600721985101699
2024-12-04 21:56:20.447887000,10.44788720703125,0.7825872302055359,0.1454834640026092,0.0538092441856861
2024-12-04 21:56:20.457922000,10.457922119140624,0.750535249710083,0.103672057390213,0.0443482771515846
2024-12-04 21:56:20.467957000,10.46795703125,0.7081238627433777,0.0677982121706008,0.0352498516440391
2024-12-04 21:56:20.477992000,10.477991943359376,0.6643021106719971,0.0405167043209075,0.0401385836303234
2024-12-04 21:56:20.488027100,10.488027099609376,0.6313065886497498,0.0470805987715721,0.0552434995770454
2024-12-04 21:56:20.498062000,10.49806201171875,0.6015433669090271,0.0704628750681877,0.0827283635735511
2024-12-04 21:56:20.508097300,10.50809716796875,0.5759873986244202,0.0872040390968322,0.1100534573197364
2024-12-04 21:56:20.518132200,10.51813232421875,0.5575340986251831,0.0931906774640083,0.1274648606777191
2024-12-04 21:56:20.528167000,10.5281669921875,0.5407503247261047,0.1018190532922744,0.1438670009374618
2024-12-04 21:56:20.538202000,10.5382021484375,0.5267384052276611,0.1086502522230148,0.1530554443597793
2024-12-04 21:56:20.548237000,10.548237060546874,0.5043516159057617,0.0992916375398635,0.1458143144845962
2024-12-04 21:56:20.558272000,10.55827197265625,0.4672412276268005,0.0770560055971145,0.1282915472984314
2024-12-04 21:56:20.568307200,10.56830712890625,0.4169999063014984,0.0741726011037826,0.1127959340810775
2024-12-04 21:56:20.578342100,10.578342041015626,0.3682592511177063,0.0947302281856536,0.093940831720829
2024-12-04 21:56:20.588377000,10.588377197265626,0.3292783200740814,0.1407698839902877,0.0820902958512306
2024-12-04 21:56:20.598412000,10.598412109375,0.2992106974124908,0.1917772591114044,0.0791141390800476
2024-12-04 21:56:20.608447000,10.608447021484375,0.2784473598003387,0.2309315949678421,0.0766587033867836
2024-12-04 21:56:20.618482200,10.618482177734377,0.2561727166175842,0.2598136663436889,0.0757806524634361
2024-12-04 21:56:20.628517000,10.62851708984375,0.2305000871419906,0.2738130986690521,0.0629021376371383
2024-12-04 21:56:20.638551000,10.638551025390624,0.200492650270462,0.2662777304649353,0.0486714281141757
2024-12-04 21:56:20.648586000,10.6485859375,0.1686260551214218,0.2544210851192474,0.027822870761156
2024-12-04 21:56:20.658621200,10.65862109375,0.1347700953483581,0.2437677979469299,0.0042554303072392
2024-12-04 21:56:20.668656000,10.66865625,0.1133236587047576,0.2281938940286636,-0.0125049082562327
2024-12-04 21:56:20.678691000,10.678691162109375,0.1031029820442199,0.2060426920652389,-0.0266437586396932
2024-12-04 21:56:20.688726300,10.688726318359375,0.1026539728045463,0.1815192401409149,-0.0323381312191486
2024-12-04 21:56:20.698761000,10.698760986328123,0.1144365966320037,0.1479855626821518,-0.0283020958304405
2024-12-04 21:56:20.708796000,10.7087958984375,0.128652274608612,0.1084948778152465,-0.0124610792845487
2024-12-04 21:56:20.718831000,10.7188310546875,0.1435864865779876,0.0716898441314697,0.0123150292783975
2024-12-04 21:56:20.728866000,10.728865966796874,0.1571675390005111,0.0630819797515869,0.0539993606507778
2024-12-04 21:56:20.738901200,10.7389013671875,0.1628254354000091,0.0693158507347107,0.0959104746580123
2024-12-04 21:56:20.748936200,10.748936279296874,0.1580114960670471,0.0779034793376922,0.1287994384765625
2024-12-04 21:56:20.758970600,10.758970703125,0.1540354043245315,0.1003576666116714,0.1534768491983413
2024-12-04 21:56:20.769005800,10.769005859375,0.1555805653333664,0.1206693351268768,0.1652773171663284
2024-12-04 21:56:20.779040800,10.779040771484375,0.1500776708126068,0.1260163187980651,0.1719701290130615
2024-12-04 21:56:20.789076000,10.789075927734377,0.1523352414369583,0.1363645642995834,0.1677729785442352
2024-12-04 21:56:20.799111000,10.79911083984375,0.1590754389762878,0.1507708877325058,0.1605184078216552
2024-12-04 21:56:20.809145900,10.809145751953125,0.1737161576747894,0.1730644851922989,0.1564325839281082
2024-12-04 21:56:20.819181000,10.81918115234375,0.193878948688507,0.1944648474454879,0.1588624268770218
2024-12-04 21:56:20.829215700,10.8292158203125,0.2219854295253753,0.2126470506191253,0.1705944538116455
2024-12-04 21:56:20.839250700,10.839250732421876,0.2471261918544769,0.2464714050292968,0.1923309713602066
2024-12-04 21:56:20.849286000,10.849285888671876,0.271517276763916,0.2907350063323974,0.2171058356761932
2024-12-04 21:56:20.859320800,10.85932080078125,0.2940271198749542,0.3402280211448669,0.2608348429203033
2024-12-04 21:56:20.869356000,10.86935595703125,0.2954369783401489,0.3709771335124969,0.3463689088821411
2024-12-04 21:56:20.879391000,10.879390869140623,0.2872083485126495,0.2949238121509552,0.3868266940116882
2024-12-04 21:56:20.889425700,10.88942578125,0.2805565893650055,0.2444126904010772,0.4117219150066376
2024-12-04 21:56:20.899460900,10.8994609375,0.2710627019405365,0.2213059663772583,0.4287906587123871
2024-12-04 21:56:20.909495800,10.909495849609376,0.2506762146949768,0.1841942816972732,0.4383135735988617
2024-12-04 21:56:20.919530800,10.91953076171875,0.2182929515838623,0.1577225178480148,0.4286247789859772
2024-12-04 21:56:20.929566000,10.92956591796875,0.1702852100133896,0.1313726603984832,0.4065085649490356
2024-12-04 21:56:20.939601000,10.939600830078126,0.1121220365166664,0.0633687525987625,0.3574305772781372
2024-12-04 21:56:20.949635800,10.9496357421875,0.052900530397892,-0.0266290456056594,0.2824577987194061
2024-12-04 21:56:20.959670800,10.9596708984375,-0.0148628083989024,-0.1087297052145004,0.1969027072191238
2024-12-04 21:56:20.969705700,10.969705810546875,-0.0885271728038787,-0.1544170379638672,0.1146507114171981
2024-12-04 21:56:20.979741000,10.979740966796877,-0.15693099796772,-0.1530265510082245,0.0476997531950473
2024-12-04 21:56:20.989776000,10.98977587890625,-0.2167897969484329,-0.1250002384185791,-0.0109947174787521
2024-12-04 21:56:20.999810800,10.999810791015625,-0.2678130269050598,-0.1001961603760719,-0.0511741414666175
2024-12-04 21:56:21.009845800,11.009845703125,-0.3107586205005646,-0.0422550924122333,-0.0733361691236496
2024-12-04 21:56:21.019880700,11.019880615234374,-0.3330631256103515,0.0790836811065673,-0.0676948279142379
2024-12-04 21:56:21.029916000,11.029916015625,-0.3291549384593963,0.2415226697921753,-0.0442933663725853
2024-12-04 21:56:21.039950800,11.039950927734376,-0.3151392936706543,0.3919643759727478,-0.0297093503177166
2024-12-04 21:56:21.049985800,11.04998583984375,-0.3022583723068237,0.4906379282474518,-0.0448089428246021
2024-12-04 21:56:21.060021000,11.06002099609375,-0.2998673915863037,0.510017454624176,-0.0940709263086319
2024-12-04 21:56:21.070056000,11.070055908203123,-0.316581130027771,0.4452134370803833,-0.1890448331832885
2024-12-04 21:56:21.080091000,11.0800908203125,-0.3522576093673706,0.3087354898452759,-0.3187993764877319
2024-12-04 21:56:21.090125800,11.090125732421876,-0.406924843788147,0.1262578070163726,-0.4502016305923462
2024-12-04 21:56:21.100160800,11.100160888671876,-0.461317777633667,-0.0468618273735046,-0.5558327436447144
2024-12-04 21:56:21.110196000,11.110196044921874,-0.5083385705947876,-0.1581534594297409,-0.5971890091896057
2024-12-04 21:56:21.120231000,11.12023095703125,-0.5535302758216858,-0.2186876088380813,-0.5788426399230957
2024-12-04 21:56:21.130265900,11.130265869140626,-0.5861926078796387,-0.2564786374568939,-0.5231431126594543
2024-12-04 21:56:21.140300800,11.14030078125,-0.6027241945266724,-0.2504585683345794,-0.4368605017662048
2024-12-04 21:56:21.150335700,11.150335693359375,-0.6045718789100647,-0.2349661737680435,-0.3130261600017547
2024-12-04 21:56:21.160371000,11.160370849609375,-0.6065983176231384,-0.2456637471914291,-0.1712005138397216
2024-12-04 21:56:21.170406000,11.170406005859377,-0.6187817454338074,-0.2366958260536193,-0.0362512245774269
2024-12-04 21:56:21.180440800,11.18044091796875,-0.6283650994300842,-0.2362714111804962,0.0723911225795745
2024-12-04 21:56:21.190476000,11.19047607421875,-0.6325989961624146,-0.2830453217029571,0.1615404486656189
2024-12-04 21:56:21.200510700,11.2005107421875,-0.6366169452667236,-0.3211618959903717,0.2134331613779068
2024-12-04 21:56:21.210545700,11.210545654296874,-0.6484970450401306,-0.3180811405181885,0.2351890653371811
2024-12-04 21:56:21.220580900,11.220580810546876,-0.666706383228302,-0.2846072912216186,0.2348237931728363
2024-12-04 21:56:21.230615800,11.23061572265625,-0.6955732107162476,-0.2465230077505111,0.2338874340057373
2024-12-04 21:56:21.240651000,11.240651123046876,-0.7515344619750977,-0.208417534828186,0.2450886964797973
2024-12-04 21:56:21.250686000,11.25068603515625,-0.8061516284942627,-0.1901389211416244,0.2698400914669037
2024-12-04 21:56:21.260720600,11.260720703125,-0.8418483734130859,-0.1955829560756683,0.2860430479049682
2024-12-04 21:56:21.270755800,11.270755859375,-0.8547700047492981,-0.2057626247406005,0.2737016677856445
2024-12-04 21:56:21.280790800,11.280790771484376,-0.846409022808075,-0.2033971399068832,0.2501172721385956
2024-12-04 21:56:21.290825700,11.29082568359375,-0.8174234628677368,-0.2126955538988113,0.2087719738483429
2024-12-04 21:56:21.300861000,11.30086083984375,-0.776326596736908,-0.2304777055978775,0.1609020978212356
2024-12-04 21:56:21.310895900,11.310895751953124,-0.7250245213508606,-0.2363585084676742,0.1141931787133216
2024-12-04 21:56:21.320931000,11.32093115234375,-0.6667801737785339,-0.2254721820354461,0.0727183893322944
2024-12-04 21:56:21.330965800,11.3309658203125,-0.5957123637199402,-0.2022869735956192,0.0402129106223583
2024-12-04 21:56:21.341000700,11.341000732421875,-0.5327547192573547,-0.1628285348415374,0.0207724515348672
2024-12-04 21:56:21.351036000,11.351035888671875,-0.4912019073963165,-0.0850458592176437,0.0065868571400642
2024-12-04 21:56:21.361070800,11.36107080078125,-0.4682691991329193,0.0123450681567192,0.0025499348994344
2024-12-04 21:56:21.371105800,11.371105712890625,-0.4691994190216064,0.0799494162201881,0.0079257916659116
2024-12-04 21:56:21.381141000,11.38114111328125,-0.4840350747108459,0.1164307296276092,0.0324364900588989
2024-12-04 21:56:21.391175700,11.39117578125,-0.5055936574935913,0.1220079287886619,0.0842573419213295
2024-12-04 21:56:21.401211000,11.4012109375,-0.5306233763694763,0.1027916967868805,0.1518678516149521
2024-12-04 21:56:21.411245800,11.411245849609376,-0.5553521513938904,0.0679889768362045,0.2207294702529907
2024-12-04 21:56:21.421280800,11.42128076171875,-0.5701020956039429,0.0031832980457693,0.2755760848522186
2024-12-04 21:56:21.431316000,11.43131591796875,-0.5728054642677307,-0.0782670825719833,0.3121383488178253
2024-12-04 21:56:21.441351000,11.441350830078123,-0.55635005235672,-0.1624149978160858,0.3273625671863556
2024-12-04 21:56:21.451385900,11.4513857421875,-0.5155442953109741,-0.2244959473609924,0.3282731175422668
2024-12-04 21:56:21.461420800,11.4614208984375,-0.4721296727657318,-0.2499448955059051,0.3237011432647705
