time,seconds_elapsed,z,y,x
2024-12-04 22:06:59.285675300,0.01467529296875,-0.0588782168924808,-0.0626017749309539,0.5953519940376282
2024-12-04 22:06:59.295701200,0.024701171875,-0.0483151413500309,-0.0261349081993103,0.5925494432449341
2024-12-04 22:06:59.305727200,0.034727294921875,-0.0031093135476112,0.0297531243413686,0.5626499056816101
2024-12-04 22:06:59.315754500,0.04475439453125,0.0552062876522541,0.0127900568768382,0.5126938819885254
2024-12-04 22:06:59.325780500,0.054780517578125,0.0819574669003486,-0.1192681118845939,0.4438391923904419
2024-12-04 22:06:59.335807200,0.06480712890625,0.0783136039972305,-0.157106876373291,0.3898598849773407
2024-12-04 22:06:59.345833200,0.074833251953125,0.0785666033625602,-0.0751512795686721,0.3691396713256836
2024-12-04 22:06:59.355859200,0.084859130859375,0.089277371764183,-0.0024229015689343,0.369524210691452
2024-12-04 22:06:59.365886200,0.09488623046875,0.1253200620412826,0.059808250516653,0.3908377587795257
2024-12-04 22:06:59.375912400,0.104912353515625,0.1751121580600738,0.1692966222763061,0.4219287633895874
2024-12-04 22:06:59.385938400,0.1149384765625,0.2100120782852172,0.2565654814243316,0.4496932923793793
2024-12-04 22:06:59.395965400,0.12496533203125,0.2188004106283188,0.3279069662094116,0.4860135614871979
2024-12-04 22:06:59.405991400,0.134991455078125,0.209348052740097,0.3797280788421631,0.5332857370376587
2024-12-04 22:06:59.416018200,0.14501806640625,0.2014370560646057,0.4731362164020538,0.605459988117218
2024-12-04 22:06:59.426044200,0.155044189453125,0.2189729064702987,0.6281896829605103,0.6934694647789001
2024-12-04 22:06:59.436070100,0.165070068359375,0.2324944138526916,0.7421183586120605,0.751844048500061
2024-12-04 22:06:59.446097400,0.175097412109375,0.2217182070016861,0.8399556875228882,0.7452087998390198
2024-12-04 22:06:59.456123400,0.185123291015625,0.2216756939888,0.8812064528465271,0.6741513013839722
2024-12-04 22:06:59.466150400,0.195150390625,0.1990207284688949,0.8264742493629456,0.583241879940033
2024-12-04 22:06:59.476176400,0.20517626953125,0.1409390568733215,0.4233647584915161,0.5181252956390381
2024-12-04 22:06:59.486202000,0.2152021484375,0.0316948592662811,-0.1496383100748062,0.4403796195983886
2024-12-04 22:06:59.496229400,0.2252294921875,-0.1067659184336662,-0.6240115165710449,0.3546980917453766
2024-12-04 22:06:59.506255400,0.23525537109375,-0.2210789024829864,-0.8122115135192871,0.3070938289165497
2024-12-04 22:06:59.516282400,0.245282470703125,-0.2680245637893677,-0.8279100060462952,0.3087027072906494
2024-12-04 22:06:59.526308400,0.255308349609375,-0.2833710312843323,-0.9251042008399964,0.357711523771286
2024-12-04 22:06:59.536334300,0.265334228515625,-0.3254782557487488,-1.1994898319244385,0.4492582678794861
2024-12-04 22:06:59.546361000,0.275361083984375,-0.3767747581005096,-1.5388848781585691,0.5279474854469299
2024-12-04 22:06:59.556387300,0.28538720703125,-0.4041830897331238,-1.7765874862670898,0.561141312122345
2024-12-04 22:06:59.566413300,0.295413330078125,-0.4112295508384704,-1.8032329082489007,0.5310806035995483
2024-12-04 22:06:59.576440300,0.3054404296875,-0.438205361366272,-1.5630757808685305,0.4137430787086487
2024-12-04 22:06:59.586466300,0.31546630859375,-0.4773775339126587,-1.5679408311843872,0.2680604457855224
2024-12-04 22:06:59.596493300,0.325493408203125,-0.4717917442321777,-1.883694767951965,0.110762134194374
2024-12-04 22:06:59.606519300,0.335519287109375,-0.4659653007984161,-2.2365517616271973,-0.0306714233011007
2024-12-04 22:06:59.616545300,0.345545166015625,-0.4716525971889496,-2.283499240875244,-0.1518814712762832
2024-12-04 22:06:59.626572300,0.355572265625,-0.5024845600128174,-1.8828917741775515,-0.2768263518810272
2024-12-04 22:06:59.636598300,0.365598388671875,-0.5874279141426086,-1.2592946290969849,-0.4434611797332763
2024-12-04 22:06:59.646625300,0.375625244140625,-0.7053556442260742,-0.9495897889137268,-0.5996867418289185
2024-12-04 22:06:59.656651300,0.3856513671875,-0.8378140926361084,-1.2510135173797607,-0.6976624131202698
2024-12-04 22:06:59.666677200,0.39567724609375,-1.0261688232421875,-1.5797077417373655,-0.7176076173782349
2024-12-04 22:06:59.676704500,0.40570458984375,-1.2453486919403076,-1.895866870880127,-0.6252294182777405
2024-12-04 22:06:59.686730500,0.41573046875,-1.3310213088989258,-2.589923143386841,-0.4853303432464599
2024-12-04 22:06:59.696756500,0.425756591796875,-1.2745453119277954,-2.635854721069336,-0.3991622030735016
2024-12-04 22:06:59.706783200,0.435783203125,-1.1313878297805786,-1.8743165731430047,-0.3681195974349975
2024-12-04 22:06:59.716809200,0.445809326171875,-0.8696582913398743,-1.1764041185379028,-0.344583123922348
2024-12-04 22:06:59.726836200,0.455836181640625,-0.5736088156700134,-0.8753259778022766,-0.2122772932052612
2024-12-04 22:06:59.736862500,0.465862548828125,-0.3494434058666229,-0.7714858651161194,-0.0133387232199311
2024-12-04 22:06:59.746888400,0.475888427734375,-0.2074210047721862,-0.5126689672470093,0.1383831650018692
2024-12-04 22:06:59.756915500,0.48591552734375,-0.1159022822976112,0.0614114999771118,0.1230281293392181
2024-12-04 22:06:59.766941200,0.495941162109375,-0.108507215976715,1.160280466079712,-0.1607806831598281
2024-12-04 22:06:59.776968200,0.50596826171875,-0.248716190457344,1.3080816268920898,-0.7082819938659668
2024-12-04 22:06:59.786994200,0.515994140625,-0.628121018409729,0.9287388920783995,-1.3686004877090454
2024-12-04 22:06:59.797020400,0.5260205078125,-1.0109206438064575,0.6006886959075928,-1.802895188331604
2024-12-04 22:06:59.807047400,0.53604736328125,-1.205507755279541,0.2106783092021942,-1.847881317138672
2024-12-04 22:06:59.817073400,0.546073486328125,-1.259260177612305,-0.1549895405769348,-1.68153715133667
2024-12-04 22:06:59.827100200,0.55610009765625,-1.3096784353256226,-0.2878506481647491,-1.5733190774917605
2024-12-04 22:06:59.837126100,0.566126220703125,-1.4395545721054075,-0.402087390422821,-1.545798659324646
2024-12-04 22:06:59.847152000,0.576152099609375,-1.567238450050354,-0.5134978294372559,-1.6563113927841189
2024-12-04 22:06:59.857179400,0.586179443359375,-1.6400192975997925,-0.3484464883804321,-1.7927680015563965
2024-12-04 22:06:59.867205400,0.596205322265625,-1.6427096128463743,-0.3403542041778564,-1.7785435914993286
2024-12-04 22:06:59.877231400,0.6062314453125,-1.5840328931808472,-0.0638882741332054,-1.740848422050476
2024-12-04 22:06:59.887258400,0.61625830078125,-1.5626938343048096,0.4242758154869079,-1.6213387250900269
2024-12-04 22:06:59.897284400,0.626284423828125,-1.3960953950881958,0.0899904817342758,-1.5782631635665894
2024-12-04 22:06:59.907311600,0.6363115234375,-1.3657305240631104,0.5667623281478882,-1.9761418104171755
2024-12-04 22:06:59.917337600,0.646337646484375,-1.019375562667847,0.4997301399707794,-2.1605985164642334
2024-12-04 22:06:59.927363600,0.656363525390625,-0.5186989307403564,-0.1327093541622162,-2.5459468364715576
2024-12-04 22:06:59.937390600,0.666390625,-0.1875437200069427,-0.0638291835784912,-2.979401111602783
2024-12-04 22:06:59.947416600,0.67641650390625,0.2015401124954223,-0.5611739754676819,-3.0410757064819336
2024-12-04 22:06:59.957443600,0.686443603515625,0.3501800894737243,-0.7566785216331482,-3.07381534576416
2024-12-04 22:06:59.967469600,0.696469482421875,0.2816772162914276,-0.3774643242359161,-2.952491521835327
2024-12-04 22:06:59.977495600,0.70649560546875,0.1949464082717895,-0.2577421069145202,-2.710805177688598
2024-12-04 22:06:59.987522600,0.7165224609375,0.1120043843984603,-0.2080291509628296,-2.753465175628662
2024-12-04 22:06:59.997548500,0.726548583984375,0.0551511757075786,0.0346802547574043,-2.9282820224761963
2024-12-04 22:07:00.007574500,0.736574462890625,0.0588511042296886,-0.0332050509750843,-3.0067570209503174
2024-12-04 22:07:00.017601500,0.7466015625,0.1720680296421051,0.1041266471147537,-3.133089065551758
2024-12-04 22:07:00.027627500,0.75662744140625,0.5399137139320374,0.2438184916973114,-3.08984899520874
2024-12-04 22:07:00.037654500,0.766654541015625,0.9820255041122437,0.1934045702219009,-2.839918613433838
2024-12-04 22:07:00.047680500,0.776680419921875,1.4491369724273682,0.2223225086927414,-2.5706827640533447
2024-12-04 22:07:00.057706500,0.78670654296875,1.947042465209961,0.0540637150406837,-2.308446168899536
2024-12-04 22:07:00.067733500,0.7967333984375,2.480797052383423,-0.3726700246334076,-2.277557373046875
2024-12-04 22:07:00.077759500,0.806759521484375,2.994475841522217,-0.9196304678916932,-2.3498501777648926
2024-12-04 22:07:00.087786800,0.816786865234375,3.399019479751587,-1.3538551330566406,-2.4282033443450928
2024-12-04 22:07:00.097812700,0.826812744140625,3.6740145683288574,-2.1409788131713867,-2.625919342041016
2024-12-04 22:07:00.107838700,0.836838623046875,3.88576340675354,-2.7858872413635254,-3.005098819732666
2024-12-04 22:07:00.117865500,0.846865478515625,3.963817358016968,-3.038851261138916,-2.8953022956848145
2024-12-04 22:07:00.127891500,0.856891357421875,3.91421103477478,-2.060084819793701,-2.104676008224488
2024-12-04 22:07:00.137918500,0.86691845703125,3.5837960243225098,-1.196461796760559,-1.4292631149291992
2024-12-04 22:07:00.147944400,0.8769443359375,2.982924699783325,-0.9590933918952942,-1.5776840448379517
2024-12-04 22:07:00.157970700,0.886970703125,2.455246686935425,-0.8524641990661621,-2.040377378463745
2024-12-04 22:07:00.167997700,0.896997802734375,2.0046119689941406,-0.45587158203125,-2.313749313354492
2024-12-04 22:07:00.178023700,0.907023681640625,1.6439039707183838,-0.5865750312805176,-2.1925344467163086
2024-12-04 22:07:00.188049700,0.917049560546875,1.4679608345031738,-0.6307662129402161,-2.083185911178589
2024-12-04 22:07:00.198076400,0.927076416015625,1.373578667640686,-1.4206417798995972,-2.175156593322754
2024-12-04 22:07:00.208102400,0.937102294921875,1.3467111587524414,-2.3078160285949707,-2.510884523391724
2024-12-04 22:07:00.218129700,0.947129638671875,1.3856041431427002,-3.181845426559448,-2.778864860534668
2024-12-04 22:07:00.228155600,0.95715576171875,1.3645212650299072,-3.6943435668945312,-2.87892746925354
2024-12-04 22:07:00.238181600,0.967181640625,1.2118594646453855,-3.7268457412719727,-2.8257079124450684
2024-12-04 22:07:00.248208600,0.977208740234375,0.822754979133606,-3.483087539672852,-2.654369115829468
2024-12-04 22:07:00.258234600,0.987234619140625,0.2305729389190673,-3.054309606552124,-2.452203750610352
2024-12-04 22:07:00.268261600,0.99726171875,-0.3821732699871063,-2.608672380447388,-2.308660984039306
2024-12-04 22:07:00.278287600,1.00728759765625,-0.7329373955726624,-2.5741305351257324,-2.266255617141724
2024-12-04 22:07:00.288313600,1.017313720703125,-0.6826183199882507,-2.786654233932495,-2.339658260345459
2024-12-04 22:07:00.298340600,1.027340576171875,-0.2700598239898681,-3.13614559173584,-2.4436280727386475
2024-12-04 22:07:00.308366600,1.03736669921875,0.3478710651397705,-3.375684261322021,-2.454566717147827
2024-12-04 22:07:00.318392600,1.047392578125,0.914658546447754,-3.371579885482788,-2.273598909378052
2024-12-04 22:07:00.328419600,1.057419677734375,1.184083342552185,-3.028276205062866,-1.9230087995529173
2024-12-04 22:07:00.338445600,1.067445556640625,0.9127968549728394,-2.479912757873535,-1.4752018451690674
2024-12-04 22:07:00.348472600,1.07747265625,0.3181292116641998,-1.8891816139221191,-1.0534441471099854
2024-12-04 22:07:00.358498600,1.08749853515625,-0.1890392154455185,-1.56826913356781,-0.7411476373672485
2024-12-04 22:07:00.368524500,1.097524658203125,-0.5089045763015747,-1.4019771814346311,-0.6242623329162598
2024-12-04 22:07:00.378551600,1.107551513671875,-0.5944068431854248,-1.3839324712753296,-0.8296442031860352
2024-12-04 22:07:00.388577500,1.11757763671875,-0.6196302175521851,-1.5006343126296997,-1.303092360496521
2024-12-04 22:07:00.398604500,1.1276044921875,-0.8250161409378052,-1.499958872795105,-1.7916945219039917
2024-12-04 22:07:00.408630500,1.137630615234375,-1.0451370477676392,-1.1997060775756836,-1.9926704168319704
2024-12-04 22:07:00.418656500,1.147656494140625,-1.151288390159607,-0.6921243667602539,-1.857410907745361
2024-12-04 22:07:00.428683500,1.15768359375,-1.324270248413086,-0.2647663950920105,-1.574759602546692
2024-12-04 22:07:00.438709500,1.16770947265625,-1.4155147075653076,-0.1574649363756179,-1.2259948253631592
2024-12-04 22:07:00.448735500,1.177735595703125,-1.1760907173156738,-0.2288150191307068,-1.1100854873657229
2024-12-04 22:07:00.458762800,1.1877626953125,-0.9550123810768129,-0.6881651282310486,-1.312714695930481
2024-12-04 22:07:00.468788700,1.197788818359375,-0.9067841172218324,-0.9418234825134276,-1.663063406944275
2024-12-04 22:07:00.478815500,1.2078154296875,-1.1263229846954346,-0.609015166759491,-1.8442835807800293
2024-12-04 22:07:00.488841500,1.217841552734375,-1.194494366645813,-0.2244981378316879,-1.780261754989624
2024-12-04 22:07:00.498867500,1.227867431640625,-1.38017475605011,0.3454235792160034,-1.6823887825012207
2024-12-04 22:07:00.508894700,1.237894775390625,-1.454188346862793,0.817529559135437,-1.3807144165039062
2024-12-04 22:07:00.518920700,1.247920654296875,-1.2973326444625854,1.2951048612594604,-0.9862302541732788
2024-12-04 22:07:00.528947700,1.25794775390625,-0.9032676815986632,1.6020208597183228,-0.702221155166626
2024-12-04 22:07:00.538973700,1.2679736328125,-0.5265923142433167,1.6557068824768066,-0.5085586309432983
2024-12-04 22:07:00.548999400,1.27799951171875,-0.3114719986915588,1.7524200677871704,-0.2315150499343872
2024-12-04 22:07:00.559026400,1.2880263671875,-0.1923281699419021,2.113933086395264,0.0551805756986141
2024-12-04 22:07:00.569052400,1.298052490234375,-0.3566177785396576,2.270916700363159,0.281897634267807
2024-12-04 22:07:00.579078700,1.30807861328125,-0.7223142981529236,2.8195369243621826,0.3805845081806183
2024-12-04 22:07:00.589105700,1.318105712890625,-1.312053084373474,2.885215759277344,0.376608669757843
2024-12-04 22:07:00.599131600,1.328131591796875,-1.885968804359436,2.8822498321533203,-0.0380350761115551
2024-12-04 22:07:00.609158400,1.338158447265625,-1.9083646535873413,2.6538400650024414,-0.2255810052156448
2024-12-04 22:07:00.619184400,1.348184326171875,-1.8510236740112305,2.328774929046631,-0.4155223071575165
2024-12-04 22:07:00.629210400,1.35821044921875,-1.7990760803222656,2.107129096984864,-0.557026743888855
2024-12-04 22:07:00.639237600,1.368237548828125,-1.7504537105560305,2.10608172416687,-0.5154447555541992
2024-12-04 22:07:00.649263600,1.378263671875,-1.7576767206192017,2.183953285217285,-0.4733020663261413
2024-12-04 22:07:00.659290600,1.38829052734375,-1.6995519399642944,2.312901020050049,-0.6817078590393066
2024-12-04 22:07:00.669316600,1.398316650390625,-1.5693223476409912,2.290735006332397,-0.9739525318145752
2024-12-04 22:07:00.679342600,1.408342529296875,-1.423253893852234,2.235851764678955,-1.1853865385055542
2024-12-04 22:07:00.689369600,1.41836962890625,-1.3160091638565063,2.102048397064209,-1.0736477375030518
2024-12-04 22:07:00.699395600,1.4283955078125,-1.3486496210098269,1.887628555297852,-0.6955900192260742
2024-12-04 22:07:00.709422600,1.438422607421875,-1.4762924909591677,1.6725146770477295,-0.3185774683952331
2024-12-04 22:07:00.719448600,1.448448486328125,-1.5863977670669556,1.337687373161316,-0.1511159241199493
2024-12-04 22:07:00.729474600,1.458474609375,-1.5107327699661257,0.7889464497566223,-0.2745164036750793
2024-12-04 22:07:00.739501600,1.46850146484375,-1.217945218086243,0.2260420769453048,-0.4985445737838745
2024-12-04 22:07:00.749527600,1.478527587890625,-0.841874897480011,-0.2130149155855178,-0.5849143266677856
2024-12-04 22:07:00.759553800,1.4885537109375,-0.5377057790756226,-0.3898829817771911,-0.4500495195388794
2024-12-04 22:07:00.769580500,1.49858056640625,-0.4532433748245239,-0.35832080245018,-0.2245484888553619
2024-12-04 22:07:00.779606500,1.5086064453125,-0.6541129350662231,-0.1446819454431533,0.1047083958983421
2024-12-04 22:07:00.789633500,1.518633544921875,-0.9593692421913148,0.1609938293695449,0.4043965935707092
2024-12-04 22:07:00.799659500,1.528659423828125,-1.2952885627746582,0.4841678142547607,0.515706479549408
2024-12-04 22:07:00.809685500,1.538685546875,-1.6027289628982544,0.7893021702766418,0.51727294921875
2024-12-04 22:07:00.819712500,1.54871240234375,-1.795647144317627,1.030473232269287,0.5342364311218262
2024-12-04 22:07:00.829738500,1.558738525390625,-1.7184733152389526,0.9705071449279784,0.5688722133636475
2024-12-04 22:07:00.839765500,1.568765625,-1.4111403226852417,0.6198621988296509,0.5097454190254211
2024-12-04 22:07:00.849791500,1.57879150390625,-1.063972234725952,0.1994654536247253,0.314999371767044
2024-12-04 22:07:00.859817500,1.5888173828125,-0.8182398676872253,0.0680201351642608,0.1871346831321716
2024-12-04 22:07:00.869844700,1.5988447265625,-0.7695751786231995,0.2818229794502258,0.2383235692977905
2024-12-04 22:07:00.879870700,1.60887060546875,-0.8615339994430542,0.7326890230178833,0.3242260217666626
2024-12-04 22:07:00.889896700,1.618896728515625,-0.9408165812492372,1.445580005645752,0.3864156007766723
2024-12-04 22:07:00.899923500,1.62892333984375,-1.0578856468200684,1.9373892545700075,0.3519412577152252
2024-12-04 22:07:00.909949700,1.63894970703125,-1.0720560550689695,2.4034698009490967,0.3619810938835144
2024-12-04 22:07:00.919976700,1.648976806640625,-1.0081177949905396,2.6316592693328857,0.4222162067890167
2024-12-04 22:07:00.930002700,1.659002685546875,-0.8766974210739136,2.649698495864868,0.5799357891082764
2024-12-04 22:07:00.940028700,1.669028564453125,-0.7002830505371094,2.49069619178772,0.8505803346633911
2024-12-04 22:07:00.950055700,1.6790556640625,-0.5683466196060181,2.479440689086914,1.281969428062439
2024-12-04 22:07:00.960081700,1.68908154296875,-0.4885009229183197,2.443182468414306,1.7858483791351318
2024-12-04 22:07:00.970108000,1.69910791015625,-0.5260571241378784,2.194284677505493,2.040901899337769
2024-12-04 22:07:00.980134700,1.709134765625,-0.4886997044086456,2.0725672245025635,1.9994041919708248
2024-12-04 22:07:00.990160600,1.71916064453125,-0.5683069825172424,1.9535664319992063,1.9366185665130613
2024-12-04 22:07:01.000187600,1.729187744140625,-0.7632012963294983,1.7613327503204346,1.877435207366944
2024-12-04 22:07:01.010213600,1.739213623046875,-0.8896915912628174,1.525784254074097,1.8384965658187864
2024-12-04 22:07:01.020239600,1.749239501953125,-0.89194655418396,1.334552526473999,1.748448371887207
2024-12-04 22:07:01.030267000,1.759266845703125,-0.8769873380661011,1.2312158346176147,1.5030325651168823
2024-12-04 22:07:01.040292900,1.76929296875,-0.9459140300750732,1.1315101385116575,1.1747479438781738
2024-12-04 22:07:01.050319600,1.779319580078125,-1.0137269496917725,1.0821141004562378,0.8936359286308289
2024-12-04 22:07:01.060345600,1.789345703125,-1.0376451015472412,1.138007640838623,0.6816718578338623
2024-12-04 22:07:01.070371600,1.79937158203125,-1.0505441427230835,1.3197503089904783,0.5535717010498047
2024-12-04 22:07:01.080398800,1.80939892578125,-1.064043402671814,1.5957106351852417,0.4844902455806732
2024-12-04 22:07:01.090424800,1.8194248046875,-1.0555601119995115,1.782323122024536,0.4901641011238098
2024-12-04 22:07:01.100450800,1.829450927734375,-0.9808843731880188,1.8414522409439087,0.4966225326061249
2024-12-04 22:07:01.110477600,1.8394775390625,-0.834337055683136,1.855709791183472,0.5096256732940674
2024-12-04 22:07:01.120503600,1.849503662109375,-0.6132182478904724,1.80662214756012,0.5553237199783325
2024-12-04 22:07:01.130530600,1.859530517578125,-0.376750648021698,1.6788982152938845,0.6054707765579224
2024-12-04 22:07:01.140556500,1.869556640625,-0.1696297079324722,1.454202651977539,0.6460555791854858
2024-12-04 22:07:01.150582800,1.879582763671875,0.0051482198759913,1.1703104972839355,0.6752704381942749
2024-12-04 22:07:01.160609800,1.88960986328125,0.1603529751300811,0.9203475713729858,0.6878480315208435
2024-12-04 22:07:01.170635800,1.8996357421875,0.2972368001937866,0.6805616021156311,0.7009912729263306
2024-12-04 22:07:01.180662500,1.90966259765625,0.4477614760398865,0.3659833967685699,0.7201696038246155
2024-12-04 22:07:01.190688500,1.9196884765625,0.6381484270095825,0.0284855403006076,0.7009889483451843
2024-12-04 22:07:01.200714500,1.929714599609375,0.8313846588134766,-0.3351576328277588,0.6273155212402344
2024-12-04 22:07:01.210741800,1.93974169921875,0.9841225147247314,-0.657319188117981,0.5169570446014404
2024-12-04 22:07:01.220767700,1.949767822265625,1.0740960836410522,-0.8817468285560608,0.4129523932933807
2024-12-04 22:07:01.230793700,1.959793701171875,1.1103323698043823,-0.9867185354232788,0.361781358718872
2024-12-04 22:07:01.240820700,1.96982080078125,1.133949875831604,-0.9548160433769226,0.4305256903171539
2024-12-04 22:07:01.250846700,1.9798466796875,1.1601320505142212,-0.8444221019744873,0.5980997681617737
2024-12-04 22:07:01.260873700,1.989873779296875,1.202433705329895,-0.7781832814216614,0.7906578779220581
2024-12-04 22:07:01.270899700,1.999899658203125,1.281334638595581,-0.76610267162323,0.951393187046051
2024-12-04 22:07:01.280925700,2.00992578125,1.3921538591384888,-0.7804381847381592,1.0627726316452026
2024-12-04 22:07:01.290952700,2.01995263671875,1.5050783157348633,-0.739203929901123,1.1105066537857056
2024-12-04 22:07:01.300978700,2.029978759765625,1.540834665298462,-0.6288568377494812,1.1160506010055542
2024-12-04 22:07:01.311005700,2.040005615234375,1.494649887084961,-0.4566313028335571,1.1055952310562134
2024-12-04 22:07:01.321032000,2.050031982421875,1.3956727981567385,-0.2891968190670013,1.0905667543411257
2024-12-04 22:07:01.331057700,2.0600576171875,1.2634189128875732,-0.1540898382663726,1.0458674430847168
2024-12-04 22:07:01.341084700,2.070084716796875,1.1239640712738037,-0.0683846250176429,0.9612126350402832
2024-12-04 22:07:01.351110700,2.080110595703125,1.013867735862732,-0.0558533854782581,0.8517093062400818
2024-12-04 22:07:01.361137700,2.0901376953125,0.9315772652626038,-0.0476503521203994,0.75857013463974
2024-12-04 22:07:01.371163600,2.10016357421875,0.8517692685127258,-0.0394590012729167,0.7027633190155029
2024-12-04 22:07:01.381189600,2.110189697265625,0.7703931927680969,-0.0243859030306339,0.6500248312950134
2024-12-04 22:07:01.391216600,2.120216552734375,0.7031779289245605,-0.0154976015910506,0.5550626516342163
2024-12-04 22:07:01.401242600,2.13024267578125,0.6455985307693481,-0.0408257804811,0.3908668160438537
2024-12-04 22:07:01.411268600,2.1402685546875,0.5680515766143799,-0.0822600424289703,0.1601385176181793
2024-12-04 22:07:01.421295600,2.150295654296875,0.4509018063545227,-0.0683780089020729,-0.0964030846953392
2024-12-04 22:07:01.431321600,2.160321533203125,0.30125293135643,-0.0065407454967498,-0.3236594200134277
2024-12-04 22:07:01.441348900,2.170348876953125,0.1498193144798278,0.0928127691149711,-0.5003119707107544
2024-12-04 22:07:01.451374800,2.180374755859375,0.0193838141858577,0.2461272180080413,-0.6428078413009644
2024-12-04 22:07:01.461400800,2.19040087890625,-0.1102176904678344,0.4798070192337036,-0.7744424343109131
2024-12-04 22:07:01.471427600,2.200427490234375,-0.249078631401062,0.8035280704498291,-0.9103776812553406
2024-12-04 22:07:01.481453600,2.21045361328125,-0.4065790772438049,1.1775450706481934,-1.0479161739349363
2024-12-04 22:07:01.491480600,2.22048046875,-0.5846675634384155,1.5178813934326172,-1.1743582487106323
2024-12-04 22:07:01.501506800,2.2305068359375,-0.7591656446456909,1.7167820930480957,-1.2856395244598389
2024-12-04 22:07:01.511532800,2.24053271484375,-0.9111490845680236,1.7623382806777954,-1.370089411735535
2024-12-04 22:07:01.521559800,2.250559814453125,-1.0155551433563232,1.7511050701141355,-1.4293538331985474
2024-12-04 22:07:01.531585800,2.260585693359375,-1.0734446048736572,1.7401691675186155,-1.4425243139266968
2024-12-04 22:07:01.541611800,2.27061181640625,-1.0618746280670166,1.683572769165039,-1.3805853128433228
2024-12-04 22:07:01.551638500,2.280638427734375,-0.9931133985519408,1.57866370677948,-1.278203010559082
2024-12-04 22:07:01.561664500,2.29066455078125,-0.8957953453063965,1.5381711721420288,-1.174128174781799
2024-12-04 22:07:01.571691800,2.30069189453125,-0.854514479637146,1.5654029846191406,-1.0558335781097412
2024-12-04 22:07:01.581717800,2.3107177734375,-0.8839627504348755,1.5981603860855105,-0.87760329246521
2024-12-04 22:07:01.591743700,2.32074365234375,-0.9418172240257264,1.5871920585632324,-0.7350836992263794
2024-12-04 22:07:01.601770800,2.330770751953125,-1.0112837553024292,1.4283019304275513,-0.7755123376846313
2024-12-04 22:07:01.611796700,2.340796630859375,-1.1272108554840088,1.109129548072815,-0.9997494220733644
2024-12-04 22:07:01.621823700,2.35082373046875,-1.240119457244873,0.6808820366859436,-1.2243624925613403
2024-12-04 22:07:01.631849700,2.360849609375,-1.241556167602539,0.3181856274604797,-1.29947030544281
2024-12-04 22:07:01.641875700,2.370875732421875,-1.1441081762313845,0.163007378578186,-1.3121275901794434
2024-12-04 22:07:01.651902700,2.38090283203125,-1.0434834957122805,0.3540902435779571,-1.385680079460144
2024-12-04 22:07:01.661928700,2.3909287109375,-1.0887489318847656,0.0183738581836223,-1.6533970832824707
2024-12-04 22:07:01.671954700,2.40095458984375,-1.3655712604522705,-0.0638983771204948,-1.962568283081055
2024-12-04 22:07:01.681981700,2.410981689453125,-1.571678876876831,-0.3856398463249206,-2.117237091064453
2024-12-04 22:07:01.692007700,2.421007568359375,-1.67083740234375,-0.9048023223876952,-2.244057893753052
2024-12-04 22:07:01.702034700,2.43103466796875,-1.6249752044677734,-1.630979299545288,-2.443758249282837
2024-12-04 22:07:01.712060700,2.441060791015625,-1.4854305982589722,-2.298246622085572,-2.642364263534546
2024-12-04 22:07:01.722086700,2.451086669921875,-1.3898838758468628,-2.6389875411987305,-2.7173163890838623
2024-12-04 22:07:01.732113700,2.46111376953125,-1.2776230573654177,-2.812380790710449,-2.6350247859954834
2024-12-04 22:07:01.742139600,2.4711396484375,-1.0979487895965576,-3.0447351932525635,-2.626366138458252
2024-12-04 22:07:01.752166700,2.481166748046875,-0.9209438562393188,-3.316734552383423,-2.826367378234864
2024-12-04 22:07:01.762192600,2.491192626953125,-0.8144356608390808,-3.3969316482543945,-3.13049864768982
2024-12-04 22:07:01.772218600,2.501218505859375,-0.8496841788291931,-3.110441207885742,-3.209707736968994
2024-12-04 22:07:01.782245600,2.51124560546875,-0.8755845427513123,-2.537072896957397,-2.803957462310791
2024-12-04 22:07:01.792271600,2.521271728515625,-0.9512708187103271,-1.752307653427124,-1.9780209064483645
2024-12-04 22:07:01.802297600,2.531297607421875,-1.0566812753677368,-0.9507638216018676,-1.0927022695541382
2024-12-04 22:07:01.812324900,2.541324951171875,-1.2440855503082275,-0.3917998969554901,-0.5194007158279419
2024-12-04 22:07:01.822350800,2.551350830078125,-1.3939954042434692,-0.0159400776028633,-0.176503524184227
2024-12-04 22:07:01.832377600,2.561377685546875,-1.320276141166687,0.0090869786217808,0.1047726273536682
2024-12-04 22:07:01.842403600,2.571403564453125,-1.1245710849761963,-0.3083167970180511,0.2896632850170135
2024-12-04 22:07:01.852429600,2.5814296875,-0.924440860748291,-0.7205655574798584,0.297957181930542
2024-12-04 22:07:01.862456800,2.591456787109375,-0.7929287552833557,-0.8862761855125427,0.2130728513002395
2024-12-04 22:07:01.872482800,2.60148291015625,-0.8836586475372314,-0.7589054107666016,0.1127201467752456
2024-12-04 22:07:01.882509800,2.611509765625,-1.1879568099975586,-0.3668125569820404,0.0358136966824531
2024-12-04 22:07:01.892535800,2.621535888671875,-1.353721261024475,0.0606298483908176,-0.1307742148637771
2024-12-04 22:07:01.902561800,2.631561767578125,-1.341333031654358,0.2320683896541595,-0.5089630484580994
2024-12-04 22:07:01.912588800,2.6415888671875,-1.227622151374817,0.0117802219465374,-0.86913001537323
2024-12-04 22:07:01.922614800,2.65161474609375,-0.9898782968521118,-0.3790854513645172,-0.980803906917572
2024-12-04 22:07:01.932640800,2.661640869140625,-0.7834210395812988,-0.6851007342338562,-0.9074111580848694
2024-12-04 22:07:01.942667800,2.671667724609375,-0.6741716265678406,-0.7670326232910156,-0.7175531983375549
2024-12-04 22:07:01.952693800,2.68169384765625,-0.6148792505264282,-0.6937903761863708,-0.5127060413360596
2024-12-04 22:07:01.962720800,2.691720703125,-0.5643415451049805,-0.6798906922340393,-0.4129058420658111
2024-12-04 22:07:01.972746800,2.701746826171875,-0.4527418315410614,-0.7786686420440674,-0.4338164329528808
2024-12-04 22:07:01.982772700,2.711772705078125,-0.3225812315940857,-0.9724089503288268,-0.5626793503761292
2024-12-04 22:07:01.992799700,2.7217998046875,-0.2080248296260833,-1.1160258054733276,-0.6860931515693665
2024-12-04 22:07:02.002825700,2.73182568359375,-0.131437063217163,-1.149351716041565,-0.742348849773407
2024-12-04 22:07:02.012853000,2.74185302734375,-0.1404899507761001,-1.007200002670288,-0.732928454875946
2024-12-04 22:07:02.022879000,2.75187890625,-0.1425017863512039,-0.9270265102386476,-0.7530636787414551
2024-12-04 22:07:02.032905000,2.761905029296875,-0.1117755770683288,-0.8979160189628601,-0.8639838099479675
2024-12-04 22:07:02.042931700,2.771931640625,-0.1624273657798767,-0.5087453126907349,-0.813229501247406
2024-12-04 22:07:02.052957700,2.781957763671875,-0.1483845114707946,-0.277145117521286,-0.7351579070091248
2024-12-04 22:07:02.062984700,2.791984619140625,-0.1797621101140976,0.0027772339526563,-0.5959042906761169
2024-12-04 22:07:02.073011000,2.802010986328125,-0.1248373463749885,-0.1578486561775207,-0.2735140025615692
2024-12-04 22:07:02.083037000,2.812036865234375,0.0412920862436294,-0.5200541019439697,0.391695111989975
2024-12-04 22:07:02.093064000,2.82206396484375,0.2227465510368347,-1.1521002054214478,1.448596715927124
2024-12-04 22:07:02.103090000,2.83208984375,0.4736038744449615,-1.5589655637741089,1.8335007429122925
2024-12-04 22:07:02.113116000,2.842115966796875,0.6539164185523987,-1.725796818733215,2.713879346847534
2024-12-04 22:07:02.123142700,2.852142578125,0.7210935950279236,-1.920096516609192,3.031955003738404
2024-12-04 22:07:02.133168600,2.862168701171875,0.4481909275054931,-1.913071632385254,2.738852500915528
2024-12-04 22:07:02.143196000,2.87219580078125,0.1187556907534599,-1.6760858297348022,2.13065767288208
2024-12-04 22:07:02.153222000,2.882221923828125,-0.137893408536911,-1.1631813049316406,1.5125521421432495
2024-12-04 22:07:02.163247900,2.892247802734375,-0.2533738613128662,-0.800990641117096,0.7733629941940308
2024-12-04 22:07:02.173275000,2.90227490234375,-0.3840772807598114,-0.4746463298797607,0.0698970034718513
2024-12-04 22:07:02.183300600,2.912300537109375,-0.4323416352272033,-0.2025181204080581,-0.4701620638370514
2024-12-04 22:07:02.193327900,2.922327880859375,-0.4274256825447082,-0.0495112687349319,-0.9351699948310852
2024-12-04 22:07:02.203353900,2.932353759765625,-0.3479259610176086,0.0304461754858493,-1.254145264625549
2024-12-04 22:07:02.213379800,2.9423798828125,-0.1889845132827758,0.1203113496303558,-1.3076341152191162
2024-12-04 22:07:02.223406800,2.95240673828125,-0.0808296576142311,0.2865692675113678,-1.0849559307098389
2024-12-04 22:07:02.233432800,2.962432861328125,-0.0797058045864105,0.404718816280365,-0.6745611429214478
2024-12-04 22:07:02.243458800,2.972458740234375,-0.1129240691661834,0.2541854977607727,-0.1605607122182846
2024-12-04 22:07:02.253485800,2.98248583984375,-0.038154762238264,-0.0959775894880294,0.2880037724971771
2024-12-04 22:07:02.263511800,2.99251171875,0.1045788675546646,-0.5160537362098694,0.5911532044410706
2024-12-04 22:07:02.273538800,3.002538818359375,0.2218421101570129,-0.715112030506134,0.4969412088394165
2024-12-04 22:07:02.283564800,3.012564697265625,0.2857827842235565,-0.6406938433647156,0.2217225283384323
2024-12-04 22:07:02.293590800,3.0225908203125,0.3059266805648803,-0.3517568111419678,-0.0386374108493328
2024-12-04 22:07:02.303617800,3.03261767578125,0.3716001212596893,0.095103919506073,-0.2377926409244537
2024-12-04 22:07:02.313644000,3.04264404296875,0.540375828742981,0.4121681451797485,-0.4107306003570556
2024-12-04 22:07:02.323670800,3.0526708984375,0.7068017721176147,0.1515496224164962,-0.827234148979187
2024-12-04 22:07:02.333696800,3.06269677734375,0.6331722736358643,-0.0388253927230834,-1.057858109474182
2024-12-04 22:07:02.343722800,3.07272265625,0.498006522655487,-0.0625740140676498,-0.4327214956283569
2024-12-04 22:07:02.353749800,3.082749755859375,0.4881027638912201,-0.3832833170890808,0.0148131288588047
2024-12-04 22:07:02.363775700,3.092775634765625,0.5746331214904785,-0.9635184407234192,0.1913212090730667
2024-12-04 22:07:02.373803000,3.102802978515625,0.8355273008346558,-1.2440563440322876,0.3771028220653534
2024-12-04 22:07:02.383829000,3.1128291015625,0.974429488182068,-1.057253360748291,0.658894956111908
2024-12-04 22:07:02.393855000,3.12285498046875,0.8713502287864685,-0.5118364095687866,0.9917147159576416
2024-12-04 22:07:02.403881700,3.1328818359375,0.6197066307067871,0.0629651919007301,1.2748370170593262
2024-12-04 22:07:02.413907700,3.14290771484375,0.2397614568471908,0.4038889408111572,1.4116153717041016
2024-12-04 22:07:02.423933700,3.15293359375,-0.0865169167518615,0.4088388979434967,1.380203366279602
2024-12-04 22:07:02.433961000,3.1629609375,-0.1522754281759262,0.1660579144954681,1.2191177606582642
2024-12-04 22:07:02.443987000,3.172987060546875,-0.2259552776813507,-0.0513118505477905,1.019641995429993
2024-12-04 22:07:02.454014000,3.183013916015625,-0.3865926563739776,-0.1861865818500518,0.992638885974884
2024-12-04 22:07:02.464039700,3.193039794921875,-0.521787166595459,-0.1972937732934951,1.0399291515350342
2024-12-04 22:07:02.474065700,3.203065673828125,-0.645966649055481,-0.1005781590938568,0.9326309561729432
2024-12-04 22:07:02.484092700,3.2130927734375,-0.7837239503860474,0.1601626574993133,0.7235103845596313
2024-12-04 22:07:02.494119000,3.223118896484375,-0.804388701915741,0.600898802280426,0.5108082294464111
2024-12-04 22:07:02.504146000,3.23314599609375,-0.6301168203353882,1.1259148120880127,0.4206029176712036
2024-12-04 22:07:02.514172000,3.243171875,-0.3520148694515228,1.6500816345214844,0.4186010062694549
2024-12-04 22:07:02.524198000,3.253197998046875,-0.6524971127510071,1.9894524812698364,0.3401165902614593
2024-12-04 22:07:02.534224600,3.263224609375,-1.0001099109649658,2.3002359867095947,0.4058088064193725
2024-12-04 22:07:02.544250600,3.273250732421875,-1.0767130851745603,2.337113380432129,0.498195618391037
2024-12-04 22:07:02.554278000,3.28327783203125,-0.9641878604888916,2.240667819976806,0.4983119964599609
2024-12-04 22:07:02.564304000,3.293303955078125,-0.7984296679496765,2.3861873149871826,0.5828188061714172
2024-12-04 22:07:02.574329900,3.303329833984375,-0.6496167182922363,2.575798988342285,0.8647490739822388
2024-12-04 22:07:02.584356900,3.31335693359375,-0.4528687298297882,2.825803518295288,1.1462407112121582
2024-12-04 22:07:02.594382800,3.3233828125,0.0383446812629699,2.765809297561645,1.260801911354065
2024-12-04 22:07:02.604408800,3.333408935546875,0.5612740516662598,2.60129451751709,0.7588174939155579
2024-12-04 22:07:02.614435800,3.343435791015625,0.5304087996482849,2.264153003692627,0.8262668251991272
2024-12-04 22:07:02.624461800,3.3534619140625,0.5092583298683167,2.3142507076263428,0.9308257699012756
2024-12-04 22:07:02.634488800,3.36348876953125,0.2864142954349518,2.3724255561828613,0.9252586960792542
2024-12-04 22:07:02.644514800,3.373514892578125,0.0483675636351108,2.471230745315552,0.8961420059204102
2024-12-04 22:07:02.654540800,3.383540771484375,-0.0899775326251983,2.4569969177246094,0.8941837549209595
2024-12-04 22:07:02.664567800,3.39356787109375,-0.1539049744606018,2.451387882232666,1.0070700645446775
2024-12-04 22:07:02.674594000,3.403593994140625,-0.2596210241317749,2.4875564575195312,1.2924644947052002
2024-12-04 22:07:02.684620800,3.413620849609375,-0.2795576155185699,2.4844658374786377,1.6490299701690674
2024-12-04 22:07:02.694646800,3.423646728515625,-0.2547774314880371,2.357217788696289,1.6712157726287842
2024-12-04 22:07:02.704672800,3.4336728515625,-0.315482348203659,2.1741626262664795,1.3397363424301147
2024-12-04 22:07:02.714699800,3.44369970703125,-0.5071777105331421,1.9205330610275269,0.9935101866722108
2024-12-04 22:07:02.724725800,3.453725830078125,-0.640330970287323,1.8616943359375,0.9034503698349
2024-12-04 22:07:02.734752800,3.463752685546875,-0.8043633103370667,1.934156894683838,0.9156607389450072
2024-12-04 22:07:02.744778800,3.47377880859375,-0.9258732795715332,2.096684694290161,0.997480809688568
2024-12-04 22:07:02.754804700,3.4838046875,-1.0559204816818235,2.087514877319336,1.0491127967834473
2024-12-04 22:07:02.764831700,3.493831787109375,-1.0413322448730469,2.0207316875457764,0.9736544489860536
2024-12-04 22:07:02.774857700,3.503857666015625,-0.9826008081436156,1.7009714841842651,0.7387372851371765
2024-12-04 22:07:02.784883700,3.5138837890625,-0.97479248046875,1.5556224584579468,0.4691397249698639
2024-12-04 22:07:02.794911000,3.523910888671875,-1.0589507818222046,1.7472243309020996,0.4444493055343628
2024-12-04 22:07:02.804937000,3.53393701171875,-1.1656686067581177,1.8521945476531985,0.6274131536483765
2024-12-04 22:07:02.814963700,3.543963623046875,-1.1849616765975952,1.873787522315979,0.7462663054466248
2024-12-04 22:07:02.824989700,3.55398974609375,-1.1635079383850098,1.9098814725875848,0.8747643232345581
2024-12-04 22:07:02.835015700,3.564015625,-1.105057954788208,1.811947464942932,0.8783276677131653
2024-12-04 22:07:02.845042700,3.574042724609375,-0.9725752472877502,1.7700493335723877,0.892737865447998
2024-12-04 22:07:02.855069000,3.58406884765625,-0.8142476081848145,1.773593187332153,0.8345717787742615
2024-12-04 22:07:02.865096000,3.594095947265625,-0.7438487410545349,1.8173171281814573,0.7662095427513123
2024-12-04 22:07:02.875122000,3.604121826171875,-0.8671237826347351,1.956685900688172,0.8244960308074951
2024-12-04 22:07:02.885148000,3.61414794921875,-1.0002301931381226,2.023075819015503,0.8953551650047302
2024-12-04 22:07:02.895174700,3.624174560546875,-0.9783892631530762,1.9138572216033936,0.8297165036201477
2024-12-04 22:07:02.905201200,3.634201171875,-0.8581039905548096,1.661544680595398,0.7119637727737427
2024-12-04 22:07:02.915227100,3.64422705078125,-0.7468016743659973,1.395464539527893,0.6227792501449585
2024-12-04 22:07:02.925254100,3.654254150390625,-0.7428634166717529,1.1892637014389038,0.6714251637458801
2024-12-04 22:07:02.935280000,3.664280029296875,-0.7791953086853027,1.3829983472824097,1.0269062519073486
2024-12-04 22:07:02.945307100,3.67430712890625,-0.7284862995147705,1.838805675506592,0.8084591627120972
2024-12-04 22:07:02.955333000,3.6843330078125,-0.8042508363723755,1.8465557098388672,0.2305180430412292
2024-12-04 22:07:02.965359000,3.694359130859375,-0.8999512195587158,2.380859375,-1.0630792379379272
2024-12-04 22:07:02.975386000,3.70438623046875,-0.9497643113136292,1.2549995183944702,-1.7541735172271729
2024-12-04 22:07:02.985412000,3.714412109375,-0.7971150875091553,1.1518769264221191,-0.4470623433589935
2024-12-04 22:07:02.995439400,3.724439453125,-0.4128116965293884,0.7133435010910034,0.33567875623703
2024-12-04 22:07:03.005465300,3.73446533203125,0.0971163362264633,0.3836113214492798,0.317947119474411
2024-12-04 22:07:03.015491300,3.7444912109375,0.3169320523738861,0.1303239315748214,0.0755318254232406
2024-12-04 22:07:03.025518000,3.75451806640625,0.2889749705791473,-0.1042625531554222,-0.1733747273683548
2024-12-04 22:07:03.035544000,3.7645439453125,0.2456312328577041,-0.197212740778923,-0.3017273545265198
2024-12-04 22:07:03.045571000,3.774571044921875,0.1663642227649688,-0.2773787975311279,-0.3907276093959808
2024-12-04 22:07:03.055597300,3.784597412109375,0.1562857627868652,-0.341438740491867,-0.5052219033241272
2024-12-04 22:07:03.065623300,3.794623291015625,0.1851638555526733,-0.6205868721008301,-0.7127110362052917
2024-12-04 22:07:03.075650300,3.804650390625,0.2624338865280151,-1.0603338479995728,-0.9753575921058656
2024-12-04 22:07:03.085676300,3.81467626953125,0.4623508155345917,-1.6107256412506104,-1.2091885805130005
2024-12-04 22:07:03.095703000,3.824703125,0.7308030128479004,-2.270930051803589,-1.3341150283813477
2024-12-04 22:07:03.105729000,3.83472900390625,1.0380960702896118,-2.992276430130005,-1.3208116292953491
2024-12-04 22:07:03.115755000,3.844755126953125,1.3607183694839478,-3.56304669380188,-1.1389381885528564
2024-12-04 22:07:03.125782300,3.8547822265625,1.790114164352417,-3.9416990280151367,-0.8298210501670837
2024-12-04 22:07:03.135808300,3.864808349609375,2.231457471847534,-4.248201370239258,-0.4105774164199829
2024-12-04 22:07:03.145834200,3.874834228515625,2.7645280361175537,-4.515748023986816,0.0368646383285522
2024-12-04 22:07:03.155861200,3.884861328125,3.122777938842773,-5.003190517425537,0.1635187268257141
2024-12-04 22:07:03.165887200,3.89488720703125,3.0871729850769043,-5.410689830780029,-0.1453146487474441
2024-12-04 22:07:03.175914200,3.904914306640625,2.8116862773895264,-5.4790568351745605,-0.3906615376472473
2024-12-04 22:07:03.185940200,3.914940185546875,2.6792984008789062,-4.915503025054932,-0.5082423090934753
2024-12-04 22:07:03.195966200,3.92496630859375,2.318112850189209,-3.8478832244873047,-0.5323870778083801
2024-12-04 22:07:03.205993200,3.9349931640625,1.7744985818862915,-2.506767511367798,-0.5257987380027771
2024-12-04 22:07:03.216019200,3.945019287109375,1.3571263551712036,-1.01983642578125,-0.5323530435562134
2024-12-04 22:07:03.226046200,3.955046142578125,1.2478071451187134,0.1869284659624099,-0.7841939926147461
2024-12-04 22:07:03.236072200,3.965072265625,1.160559058189392,1.2351659536361694,-1.123799204826355
2024-12-04 22:07:03.246098200,3.97509814453125,1.0723471641540527,1.8007491827011108,-1.3224859237670898
2024-12-04 22:07:03.256125200,3.985125244140625,1.066800594329834,1.82661247253418,-1.191280722618103
2024-12-04 22:07:03.266151200,3.995151123046875,1.2320438623428345,1.1638706922531128,-0.9321957230567932
2024-12-04 22:07:03.276178200,4.00517822265625,1.6571226119995115,0.4261298775672912,-0.9622732400894164
2024-12-04 22:07:03.286204200,4.0152041015625,2.1588375568389893,0.0493138246238231,-1.254177451133728
2024-12-04 22:07:03.296230100,4.025230224609375,2.477951765060425,-0.0144169498234987,-1.4808555841445925
2024-12-04 22:07:03.306257200,4.035257080078125,2.6202337741851807,0.1408540159463882,-1.629032850265503
2024-12-04 22:07:03.316283100,4.045283203125,2.521662473678589,0.266520082950592,-1.5535063743591309
2024-12-04 22:07:03.326309000,4.05530908203125,2.3391385078430176,0.333711564540863,-1.5892629623413086
2024-12-04 22:07:03.336336100,4.065336181640625,2.167022705078125,0.3712509572505951,-1.6499106884002686
2024-12-04 22:07:03.346362000,4.075362060546875,2.0698277950286865,0.4380289018154144,-1.5730701684951782
2024-12-04 22:07:03.356389400,4.085389404296875,1.9940980672836304,0.4182637333869934,-1.4282797574996948
2024-12-04 22:07:03.366415400,4.095415283203125,1.849577784538269,0.551885187625885,-1.3305824995040894
2024-12-04 22:07:03.376441300,4.10544140625,1.6787554025650024,0.5597377419471741,-1.355553388595581
2024-12-04 22:07:03.386468000,4.115468017578125,1.421152114868164,0.4593840837478637,-1.45036780834198
2024-12-04 22:07:03.396494000,4.125494140625,1.2426478862762451,0.3087423741817474,-1.5995146036148071
2024-12-04 22:07:03.406521000,4.13552099609375,1.035516381263733,0.2801229953765869,-1.668400526046753
2024-12-04 22:07:03.416547300,4.14554736328125,0.8858654499053955,0.4643916189670563,-1.5724481344223022
2024-12-04 22:07:03.426573300,4.1555732421875,0.8237319588661194,0.4896295666694641,-1.4686256647109983
2024-12-04 22:07:03.436600300,4.165600341796875,0.8182636499404907,0.3661409020423889,-1.476526975631714
2024-12-04 22:07:03.446626300,4.175626220703125,0.6969072818756104,0.2396893501281738,-1.5767419338226318
2024-12-04 22:07:03.456653000,4.185653076171875,0.542862057685852,-0.1616599410772323,-1.6939926147460938
2024-12-04 22:07:03.466679000,4.195678955078125,0.3980202078819275,-0.4932904243469238,-1.831125259399414
2024-12-04 22:07:03.476705000,4.205705078125,0.3174185752868652,-0.8497366905212402,-1.7685712575912476
2024-12-04 22:07:03.486732300,4.215732177734375,0.2368022203445434,-1.1519933938980105,-1.5521506071090698
2024-12-04 22:07:03.496758300,4.22575830078125,0.2209313809871673,-0.9272202253341676,-1.3904671669006348
2024-12-04 22:07:03.506785300,4.235785400390625,0.3262279331684112,-0.6367494463920593,-1.0583977699279783
2024-12-04 22:07:03.516811000,4.24581103515625,0.3333500027656555,-0.3909325301647186,-0.7098227143287659
2024-12-04 22:07:03.526837000,4.2558369140625,0.3392921686172485,-0.0888257622718811,-0.5975804328918457
2024-12-04 22:07:03.536864300,4.2658642578125,0.3948845863342285,0.1284990906715393,-0.5590479373931885
2024-12-04 22:07:03.546890200,4.27589013671875,0.3816111087799072,0.2515016198158264,-0.4851494133472442
2024-12-04 22:07:03.556916200,4.285916259765625,0.3623631000518799,0.3185384571552276,-0.4444999694824219
2024-12-04 22:07:03.566943200,4.295943115234375,0.3509762585163116,0.3159109652042389,-0.4956450760364532
2024-12-04 22:07:03.576969200,4.30596923828125,0.2821337878704071,0.230248287320137,-0.4404947459697723
2024-12-04 22:07:03.586996000,4.315995849609375,0.2403849065303802,0.1662688255310058,-0.3096359968185425
2024-12-04 22:07:03.597022200,4.326022216796875,0.2574640214443207,-0.0071213440969586,-0.1817635148763656
2024-12-04 22:07:03.607048200,4.336048095703125,0.2835302948951721,-0.2583323121070862,-0.0639158710837364
2024-12-04 22:07:03.617075200,4.3460751953125,0.3176456391811371,-0.370381623506546,-0.1129808872938156
2024-12-04 22:07:03.627101200,4.35610107421875,0.3960762917995453,-0.629077136516571,-0.1622524559497833
2024-12-04 22:07:03.637128200,4.366128173828125,0.4382325410842895,-0.7466935515403748,-0.240298256278038
2024-12-04 22:07:03.647154200,4.376154296875,0.3868286311626434,-1.0755573511123655,-0.3585618734359741
2024-12-04 22:07:03.657180400,4.386180419921875,0.3107953667640686,-1.3851591348648071,-0.4896501302719116
2024-12-04 22:07:03.667207200,4.396207275390625,0.3454937040805816,-1.3673439025878906,-0.5707508325576782
2024-12-04 22:07:03.677233200,4.406233154296875,0.4537519216537475,-1.2187455892562866,-0.6030042171478271
2024-12-04 22:07:03.687260200,4.41626025390625,0.6201532483100891,-1.056931972503662,-0.5915631055831909
2024-12-04 22:07:03.697286100,4.4262861328125,0.7831027507781982,-0.9954872131347656,-0.5896816253662109
2024-12-04 22:07:03.707312000,4.43631201171875,0.8682391047477722,-1.034538745880127,-0.6131332516670227
2024-12-04 22:07:03.717339400,4.44633935546875,0.8958997130393982,-1.190459132194519,-0.6069658994674683
2024-12-04 22:07:03.727365400,4.456365478515625,0.9202176332473756,-1.4032632112503052,-0.4413421154022217
2024-12-04 22:07:03.737392000,4.46639208984375,1.0568889379501345,-1.5448744297027588,-0.0870543345808982
2024-12-04 22:07:03.747418000,4.476418212890625,1.3812494277954102,-1.7952516078948977,0.455083817243576
2024-12-04 22:07:03.757444000,4.486444091796875,1.891774296760559,-2.25520133972168,1.0463926792144775
2024-12-04 22:07:03.767471000,4.49647119140625,2.48110580444336,-2.3389904499053955,1.4451879262924194
2024-12-04 22:07:03.777497300,4.506497314453125,3.0513622760772705,-1.855628490447998,1.5617806911468506
2024-12-04 22:07:03.787523300,4.5165234375,3.390315532684326,-1.508270025253296,1.565407395362854
2024-12-04 22:07:03.797550000,4.526550048828125,3.38576078414917,-1.324100375175476,1.454930067062378
2024-12-04 22:07:03.807576000,4.536576171875,3.209434032440185,-0.928401529788971,1.1291005611419678
2024-12-04 22:07:03.817603000,4.54660302734375,3.115776538848877,-0.4694832563400268,0.6809649467468262
2024-12-04 22:07:03.827629000,4.556629150390625,3.1328494548797607,0.0296957287937402,0.133980706334114
2024-12-04 22:07:03.837655300,4.5666552734375,3.221503734588623,0.4456828236579895,-0.4464552700519562
2024-12-04 22:07:03.847682300,4.576682373046875,3.331559181213379,0.716909646987915,-0.9767773151397704
2024-12-04 22:07:03.857708300,4.586708251953125,3.495646715164185,0.5101223587989807,-1.2596033811569214
2024-12-04 22:07:03.867735000,4.596735107421875,3.602532148361206,-0.5657449960708618,-1.211552977561951
2024-12-04 22:07:03.877761000,4.606760986328125,3.589792490005493,-1.770201325416565,-1.204487681388855
2024-12-04 22:07:03.887787000,4.616787109375,3.482152938842773,-2.578017473220825,-1.3485782146453855
2024-12-04 22:07:03.897814300,4.626814208984375,3.3509774208068848,-3.0480568408966064,-1.495325803756714
2024-12-04 22:07:03.907839200,4.636839111328125,3.249338865280152,-3.170753002166748,-1.63433575630188
2024-12-04 22:07:03.917866200,4.6468662109375,3.1576201915740967,-3.0326597690582275,-1.711588740348816
2024-12-04 22:07:03.927892200,4.656892333984375,3.079333782196045,-2.848385572433472,-1.7884618043899536
2024-12-04 22:07:03.937918500,4.66691845703125,4.143752098083496,-2.657267093658448,-1.8416035175323489
2024-12-04 22:07:03.947945500,4.676945556640625,6.579726696014404,-2.396308183670044,-1.4743940830230713
2024-12-04 22:07:03.957971500,4.686971435546875,7.785912036895752,-1.9274466037750244,-0.9948318004608154
2024-12-04 22:07:03.967998200,4.696998291015625,7.490525245666504,-1.2392765283584597,-0.4968822300434112
2024-12-04 22:07:03.978024200,4.707024169921875,6.144187450408936,-0.2754892110824585,0.1914815455675125
2024-12-04 22:07:03.988050200,4.71705029296875,3.3260257244110107,0.5211147665977478,1.0063873529434204
2024-12-04 22:07:03.998077400,4.727077392578125,-0.1361598521471023,1.14591383934021,1.4136086702346802
2024-12-04 22:07:04.008103400,4.737103515625,-2.448913335800171,0.9245416522026062,0.5978294610977173
2024-12-04 22:07:04.018130200,4.747130126953125,-2.961737155914306,0.2066750973463058,-0.6240240335464478
2024-12-04 22:07:04.028156200,4.75715625,-2.5114691257476807,-0.5074236989021301,-1.5303610563278198
2024-12-04 22:07:04.038182100,4.76718212890625,-1.7660784721374512,-1.1001065969467163,-1.9617929458618164
2024-12-04 22:07:04.048209400,4.77720947265625,-0.9766255617141724,-1.6037187576293943,-1.95132064819336
2024-12-04 22:07:04.058235400,4.7872353515625,-0.321599543094635,-1.9709588289260864,-1.5247341394424438
2024-12-04 22:07:04.068262400,4.797262451171875,0.0389956347644329,-2.168479681015014,-0.7834711074829102
2024-12-04 22:07:04.078288400,4.807288330078125,0.0043540322221815,-2.123514413833618,0.0183260031044483
2024-12-04 22:07:04.088314400,4.817314453125,-0.0839091837406158,-1.7321182489395142,0.5499052405357361
2024-12-04 22:07:04.098341000,4.827341064453125,0.0208041816949844,-1.1328226327896118,0.6857240200042725
2024-12-04 22:07:04.108367000,4.8373671875,0.1800789386034011,-0.4838365614414215,0.5461992621421814
2024-12-04 22:07:04.118393300,4.847393310546875,0.2940028309822082,0.0949508845806121,0.3071834743022918
2024-12-04 22:07:04.128420400,4.85742041015625,0.3252845704555511,0.4901338219642639,0.0777915120124816
2024-12-04 22:07:04.138446300,4.8674462890625,0.3109639585018158,0.6436282992362976,-0.0924998000264167
2024-12-04 22:07:04.148473300,4.877473388671875,0.2712760269641876,0.6137319803237915,-0.197566881775856
2024-12-04 22:07:04.158499300,4.887499267578125,0.2112350463867187,0.4836677610874176,-0.2565718591213226
2024-12-04 22:07:04.168525300,4.897525390625,0.1581779271364212,0.2938113212585449,-0.3013378381729126
2024-12-04 22:07:04.178552300,4.90755224609375,0.1202007159590721,0.0513166636228561,-0.3496497273445129
2024-12-04 22:07:04.188578300,4.917578369140625,0.0872179195284843,-0.2290887534618377,-0.3944073915481567
2024-12-04 22:07:04.198605300,4.927605224609375,0.0551729016005992,-0.4971601665019989,-0.4166556894779205
2024-12-04 22:07:04.208631300,4.93763134765625,0.0303039439022541,-0.6966715455055237,-0.4069632589817047
2024-12-04 22:07:04.218657300,4.9476572265625,0.0080428458750247,-0.8071181774139404,-0.3680041432380676
2024-12-04 22:07:04.228684500,4.9576845703125,-0.0035786312073469,-0.8523011803627014,-0.3148939311504364
2024-12-04 22:07:04.238710500,4.96771044921875,-0.0050412397831678,-0.8508074283599854,-0.2426378428936004
2024-12-04 22:07:04.248737300,4.9777373046875,-0.0013293689116835,-0.8256882429122925,-0.1466201245784759
2024-12-04 22:07:04.258763300,4.98776318359375,-0.0100594777613878,-0.783816397190094,-0.0456865914165973
2024-12-04 22:07:04.268789200,4.997789306640625,-0.0465300604701042,-0.734154999256134,0.0591455996036529
2024-12-04 22:07:04.278816300,5.007816162109375,-0.08217753469944,-0.6828452348709106,0.1701461523771286
2024-12-04 22:07:04.288842200,5.01784228515625,-0.1235866248607635,-0.565386176109314,0.3021454215049743
2024-12-04 22:07:04.298869200,5.027869140625,-0.1418202221393585,-0.3342077732086181,0.3766390979290008
2024-12-04 22:07:04.308895200,5.037895263671875,-0.0714822560548782,-0.0248194467276334,0.3091068267822265
2024-12-04 22:07:04.318921200,5.047921142578125,0.0230048354715108,0.3277775049209595,0.1007586568593978
2024-12-04 22:07:04.328948200,5.0579482421875,0.0368483737111091,0.7583817839622498,-0.1754445880651474
2024-12-04 22:07:04.338974200,5.06797412109375,-0.0353280827403068,1.1471601724624634,-0.4204671084880829
2024-12-04 22:07:04.349001500,5.07800146484375,-0.0910728871822357,1.3646132946014404,-0.5782039761543274
2024-12-04 22:07:04.359027500,5.08802734375,-0.0549116879701614,1.3683874607086182,-0.5959579348564148
2024-12-04 22:07:04.369053400,5.098053466796875,0.0352965258061885,1.1431881189346311,-0.4581032991409302
2024-12-04 22:07:04.379080200,5.108080078125,0.1374734938144683,0.7296234369277954,-0.1922082304954528
2024-12-04 22:07:04.389106200,5.118106201171875,0.2108425796031952,0.2023031413555145,0.1550536006689071
2024-12-04 22:07:04.399133200,5.12813330078125,0.2238784879446029,-0.3562866151332855,0.4976010918617248
2024-12-04 22:07:04.409159400,5.138159423828125,0.2053936421871185,-0.9002513885498047,0.7366495132446289
2024-12-04 22:07:04.419185400,5.148185302734375,0.1822859346866607,-1.393208384513855,0.8482058644294739
2024-12-04 22:07:04.429212400,5.15821240234375,0.1521988213062286,-1.7784627676010132,0.8779842853546143
2024-12-04 22:07:04.439238400,5.16823828125,0.0728302225470542,-2.012277126312256,0.866127073764801
2024-12-04 22:07:04.449264400,5.178264404296875,-0.0246909521520137,-2.103801965713501,0.8306832909584045
2024-12-04 22:07:04.459291100,5.188291015625,-0.1112040057778358,-2.083240270614624,0.7668135166168213
2024-12-04 22:07:04.469317000,5.198317138671875,-0.1979758292436599,-1.9895460605621336,0.7057555317878723
2024-12-04 22:07:04.479344400,5.208344482421875,-0.3100144863128662,-1.872609257698059,0.688214898109436
2024-12-04 22:07:04.489370400,5.218370361328125,-0.4549390971660614,-1.8006641864776611,0.7343773245811462
2024-12-04 22:07:04.499396400,5.228396240234375,-0.6726368069648743,-1.8487765789031985,0.8289787173271179
2024-12-04 22:07:04.509423400,5.23842333984375,-0.9312371015548706,-1.955855369567871,0.8884607553482056
2024-12-04 22:07:04.519449300,5.248449462890625,-1.1788482666015625,-2.1100032329559326,0.9590097665786744
2024-12-04 22:07:04.529476400,5.258476318359375,-1.3544297218322754,-2.3553736209869385,1.0943604707717896
2024-12-04 22:07:04.539502300,5.26850244140625,-1.4469887018203735,-2.4564666748046875,1.1982675790786743
2024-12-04 22:07:04.549528300,5.2785283203125,-1.4540215730667114,-2.343040943145752,1.2151464223861694
2024-12-04 22:07:04.559555300,5.288555419921875,-1.382460594177246,-2.144197940826416,1.200087547302246
2024-12-04 22:07:04.569581300,5.298581298828125,-1.29459547996521,-1.8094627857208248,1.1637141704559326
2024-12-04 22:07:04.579608300,5.3086083984375,-1.2450026273727417,-1.2850583791732788,1.0882025957107544
2024-12-04 22:07:04.589634300,5.31863427734375,-1.2516202926635742,-0.6929515600204468,0.990762174129486
2024-12-04 22:07:04.599660300,5.328660400390625,-1.3065907955169678,-0.1698156148195266,0.8904856443405151
2024-12-04 22:07:04.609687300,5.338687255859375,-1.333426594734192,0.1618608087301254,0.8082324266433716
2024-12-04 22:07:04.619713300,5.34871337890625,-1.3089462518692017,0.3049713671207428,0.7495046257972717
2024-12-04 22:07:04.629740300,5.358740234375,-1.2586820125579834,0.2984911799430847,0.6716645956039429
2024-12-04 22:07:04.639766300,5.368766357421875,-1.2422666549682615,0.207172691822052,0.5739737153053284
2024-12-04 22:07:04.649792500,5.37879248046875,-1.2760677337646484,-0.0111763207241892,0.4880953729152679
2024-12-04 22:07:04.659819300,5.3888193359375,-1.365872502326965,-0.3556562066078186,0.448595643043518
2024-12-04 22:07:04.669845200,5.39884521484375,-1.4665673971176147,-0.6809353232383728,0.5061035752296448
2024-12-04 22:07:04.679872300,5.408872314453125,-1.5121781826019287,-0.8484966158866882,0.7282924652099609
2024-12-04 22:07:04.689898200,5.418898193359375,-1.5037518739700315,-0.868078887462616,0.9879690408706664
2024-12-04 22:07:04.699924200,5.42892431640625,-1.46346116065979,-0.7232098579406738,1.1331506967544556
2024-12-04 22:07:04.709951500,5.438951416015625,-1.4372459650039673,-0.4399265944957733,1.15583336353302
2024-12-04 22:07:04.719977500,5.4489775390625,-1.4454137086868286,-0.1711934059858322,1.1206605434417725
2024-12-04 22:07:04.730004200,5.459004150390625,-1.491106390953064,-0.0216125734150409,1.0993109941482544
2024-12-04 22:07:04.740030200,5.4690302734375,-1.5591596364974976,-0.0336750969290733,1.0891244411468506
2024-12-04 22:07:04.750056200,5.47905615234375,-1.6328966617584229,-0.0647874474525451,1.0986883640289309
2024-12-04 22:07:04.760083200,5.489083251953125,-1.6663826704025269,0.045489527285099,1.2074012756347656
2024-12-04 22:07:04.770109400,5.499109375,-1.6171365976333618,0.1655328124761581,1.3829015493392944
2024-12-04 22:07:04.780135400,5.509135498046875,-1.6509315967559814,0.2570624649524688,1.5262552499771118
2024-12-04 22:07:04.790162400,5.519162353515625,-1.7585597038269043,0.3680904507637024,1.6420272588729858
2024-12-04 22:07:04.800188400,5.5291884765625,-1.8347913026809688,0.6407070755958557,1.7381833791732788
2024-12-04 22:07:04.810215200,5.539215087890625,-1.8610817193984983,1.0353885889053345,1.7986177206039429
2024-12-04 22:07:04.820241200,5.5492412109375,-1.84524154663086,1.5272537469863892,1.8789362907409668
2024-12-04 22:07:04.830267400,5.559267333984375,-1.795820713043213,1.9428285360336304,1.9387322664260864
2024-12-04 22:07:04.840294400,5.56929443359375,-1.7034329175949097,2.2588307857513428,1.9891839027404783
2024-12-04 22:07:04.850320400,5.5793203125,-1.600352764129639,2.4115898609161377,2.0263211727142334
2024-12-04 22:07:04.860347400,5.589347412109375,-1.4858916997909546,2.3709545135498047,1.983747839927673
2024-12-04 22:07:04.870373400,5.599373291015625,-1.3498859405517578,2.150117874145508,1.8443782329559328
2024-12-04 22:07:04.880399000,5.609399169921875,-1.2181981801986694,1.91697096824646,1.641342282295227
2024-12-04 22:07:04.890426400,5.61942626953125,-1.0825209617614746,1.8060113191604608,1.4356892108917236
2024-12-04 22:07:04.900452400,5.629452392578125,-0.9453394412994384,1.819272875785828,1.287356734275818
2024-12-04 22:07:04.910480400,5.63948046875,-0.8252940773963928,1.8953015804290767,1.188042163848877
2024-12-04 22:07:04.920506000,5.649506103515625,-0.7290987968444824,1.9471378326416016,1.0991487503051758
2024-12-04 22:07:04.930532000,5.659531982421875,-0.6418467164039612,1.9067612886428835,0.9811506271362304
2024-12-04 22:07:04.940559400,5.669559326171875,-0.5533013939857483,1.7701144218444824,0.8260225653648376
2024-12-04 22:07:04.950585300,5.67958544921875,-0.4918271601200104,1.5803030729293823,0.619182288646698
2024-12-04 22:07:04.960612400,5.6896123046875,-0.4530589878559112,1.3198765516281128,0.3638613522052765
2024-12-04 22:07:04.970638300,5.699638427734375,-0.4267285764217376,1.0763558149337769,0.0624011643230915
2024-12-04 22:07:04.980664300,5.709664306640625,-0.3695869743824005,0.8910919427871704,-0.2571920156478882
2024-12-04 22:07:04.990691300,5.71969140625,-0.2850014865398407,0.7270707488059998,-0.5755161046981812
2024-12-04 22:07:05.000717300,5.72971728515625,-0.1564997136592865,0.5583038330078125,-0.8704963326454163
2024-12-04 22:07:05.010744300,5.739744384765625,-0.0458483397960662,0.3421155512332916,-1.141413688659668
2024-12-04 22:07:05.020770300,5.749770263671875,0.0650552734732627,0.1075070425868034,-1.3847088813781738
2024-12-04 22:07:05.030796300,5.75979638671875,0.1631266325712204,-0.0690810233354568,-1.6081340312957764
2024-12-04 22:07:05.040823300,5.7698232421875,0.2718328833580017,-0.1065002977848053,-1.799147605895996
2024-12-04 22:07:05.050849300,5.779849365234375,0.4082160890102386,-0.0980779454112052,-1.96320915222168
2024-12-04 22:07:05.060876300,5.789876220703125,0.6065795421600342,-0.1498812288045883,-2.0931732654571533
2024-12-04 22:07:05.070902300,5.79990234375,0.816689133644104,-0.3391960263252258,-2.137883424758911
2024-12-04 22:07:05.080928300,5.80992822265625,0.895369827747345,-0.823881208896637,-2.1063754558563232
2024-12-04 22:07:05.090955300,5.819955322265625,0.8083697557449341,-2.020230531692505,-1.5980530977249146
2024-12-04 22:07:05.100981200,5.829981201171875,0.4668835401535034,-3.1012449264526367,-0.7530275583267212
2024-12-04 22:07:05.111007200,5.84000732421875,0.5259217023849487,-2.328193187713623,-0.8345992565155029
2024-12-04 22:07:05.121034500,5.850034423828125,1.1995078325271606,-1.569923996925354,-1.3500759601593018
2024-12-04 22:07:05.131060500,5.860060546875,2.0844919681549072,-0.5139868259429932,-1.7266381978988647
2024-12-04 22:07:05.141087200,5.870087158203125,2.3734383583068848,0.328326016664505,-1.6343194246292114
2024-12-04 22:07:05.151113200,5.88011328125,1.7058258056640625,0.3204522132873535,-1.1210116147994995
2024-12-04 22:07:05.161139200,5.89013916015625,0.7801985740661621,0.2586666047573089,-0.578694760799408
2024-12-04 22:07:05.171166500,5.90016650390625,0.1150005832314491,0.33551025390625,-0.3232582211494446
2024-12-04 22:07:05.181192400,5.9101923828125,-0.1734461188316345,0.3187272846698761,-0.370335191488266
2024-12-04 22:07:05.191219500,5.920219482421875,-0.1277231127023697,-0.1208305060863494,-0.5381850004196167
2024-12-04 22:07:05.201245200,5.9302451171875,0.2450291514396667,-0.92231947183609,-0.7235985398292542
2024-12-04 22:07:05.211271200,5.940271240234375,0.862907886505127,-1.2849454879760742,-1.0308845043182373
2024-12-04 22:07:05.221298200,5.950298095703125,1.4657436609268188,-0.9243637919425964,-1.4347920417785645
2024-12-04 22:07:05.231324400,5.960324462890625,1.86266565322876,-0.5905619263648987,-1.751339077949524
2024-12-04 22:07:05.241351400,5.970351318359375,1.967252254486084,-0.687515377998352,-1.902726650238037
2024-12-04 22:07:05.251377400,5.98037744140625,1.804155349731445,-0.923717439174652,-1.9325956106185915
2024-12-04 22:07:05.261403400,5.9904033203125,1.5214037895202637,-1.070391297340393,-1.840662240982056
2024-12-04 22:07:05.271430100,6.00043017578125,1.2523066997528076,-1.1028655767440796,-1.659369707107544
2024-12-04 22:07:05.281456000,6.0104560546875,1.0678130388259888,-1.0528016090393066,-1.4505006074905396
2024-12-04 22:07:05.291483400,6.0204833984375,0.9401023983955384,-0.9388681054115297,-1.2716803550720217
2024-12-04 22:07:05.301509400,6.03050927734375,0.8657528162002563,-0.8342812657356262,-1.1120665073394775
2024-12-04 22:07:05.311535400,6.040535400390625,0.8471169471740723,-0.7041593790054321,-1.0093437433242798
2024-12-04 22:07:05.321562400,6.050562255859375,0.8718768954277039,-0.5367946028709412,-0.970732033252716
2024-12-04 22:07:05.331588400,6.06058837890625,0.933247983455658,-0.3756262362003326,-0.9635003805160522
2024-12-04 22:07:05.341615000,6.070614990234375,0.9943629503250122,-0.2379637211561203,-0.9675387740135192
2024-12-04 22:07:05.351641300,6.080641357421875,1.017448902130127,-0.1070645004510879,-0.95367431640625
2024-12-04 22:07:05.361667300,6.090667236328125,1.0045578479766846,0.0467450395226478,-0.9151849746704102
2024-12-04 22:07:05.371694300,6.1006943359375,0.9671103358268738,0.2849781811237335,-0.8580259084701538
2024-12-04 22:07:05.381720300,6.11072021484375,0.9266912937164308,0.5678932070732117,-0.7905341982841492
2024-12-04 22:07:05.391747300,6.120747314453125,0.8571470379829407,0.7653229236602783,-0.7159383893013
2024-12-04 22:07:05.401773300,6.130773193359375,0.7764836549758911,0.9363324642181396,-0.6206395626068115
2024-12-04 22:07:05.411799600,6.140799560546875,0.7019824981689453,1.0492780208587646,-0.5092753767967224
2024-12-04 22:07:05.421826300,6.150826416015625,0.6389127373695374,1.0569268465042114,-0.3973618745803833
2024-12-04 22:07:05.431852300,6.160852294921875,0.5938512086868286,0.969701051712036,-0.2989208102226257
2024-12-04 22:07:05.441879300,6.17087939453125,0.578341007232666,0.8761311769485474,-0.2530526518821716
2024-12-04 22:07:05.451905300,6.1809052734375,0.5847235321998596,0.8231818675994873,-0.2522561252117157
2024-12-04 22:07:05.461931300,6.19093115234375,0.5705355405807495,0.8705083727836609,-0.3013871610164642
2024-12-04 22:07:05.471958300,6.200958251953125,0.5384634733200073,0.989512264728546,-0.3877026438713074
2024-12-04 22:07:05.481984300,6.210984375,0.5075113773345947,1.0852512121200562,-0.4853492975234985
2024-12-04 22:07:05.492011300,6.22101123046875,0.4910196363925934,1.0956203937530518,-0.5522822141647339
2024-12-04 22:07:05.502037200,6.231037353515625,0.4807243943214416,0.991931974887848,-0.5810153484344482
2024-12-04 22:07:05.512063200,6.241063232421875,0.4769004881381988,0.8218449354171753,-0.5606975555419922
2024-12-04 22:07:05.522090500,6.251090576171875,0.4731976389884949,0.6630707383155823,-0.5166406631469727
2024-12-04 22:07:05.532116500,6.261116455078125,0.4607787430286407,0.5789434313774109,-0.4669632017612457
2024-12-04 22:07:05.542142500,6.271142578125,0.4545264542102813,0.5729654431343079,-0.4070660471916199
2024-12-04 22:07:05.552169200,6.281169189453125,0.4428662061691284,0.595580518245697,-0.3274890184402466
2024-12-04 22:07:05.562195200,6.2911953125,0.4266848266124725,0.6632178425788879,-0.234500765800476
2024-12-04 22:07:05.572222200,6.30122216796875,0.3882968723773956,0.7859067916870117,-0.1566887944936752
2024-12-04 22:07:05.582248200,6.311248291015625,0.3308775126934051,0.9191260933876038,-0.1331222057342529
2024-12-04 22:07:05.592274400,6.3212744140625,0.2806982398033142,1.078757405281067,-0.1933168917894363
2024-12-04 22:07:05.602301400,6.331301513671875,0.2523299753665924,1.2368040084838867,-0.3259516656398773
2024-12-04 22:07:05.612327400,6.341327392578125,0.2426112443208694,1.3310364484786987,-0.4808796644210815
2024-12-04 22:07:05.622354200,6.351354248046875,0.2427561283111572,1.3219499588012695,-0.6277255415916443
2024-12-04 22:07:05.632380200,6.361380126953125,0.238191932439804,1.233861804008484,-0.7199321389198303
2024-12-04 22:07:05.642406100,6.37140625,0.2213186770677566,1.057137370109558,-0.745283842086792
2024-12-04 22:07:05.652433400,6.381433349609375,0.2290064543485641,0.7449164390563965,-0.7042332887649536
2024-12-04 22:07:05.662459400,6.39145947265625,0.232248842716217,0.376705914735794,-0.6412713527679443
2024-12-04 22:07:05.672486400,6.401486328125,0.2180216461420059,0.0629753917455673,-0.5837824940681458
2024-12-04 22:07:05.682512400,6.411512451171875,0.2151038944721222,-0.1464318931102752,-0.5138790011405945
2024-12-04 22:07:05.692538400,6.421538330078125,0.2200549244880676,-0.2980583608150482,-0.4473473727703094
2024-12-04 22:07:05.702565400,6.4315654296875,0.225710928440094,-0.4001144170761108,-0.4004035592079162
2024-12-04 22:07:05.712591400,6.44159130859375,0.2117439806461334,-0.4452542662620544,-0.3841351568698883
2024-12-04 22:07:05.722618400,6.451618408203125,0.1679637432098388,-0.4538115262985229,-0.386815071105957
2024-12-04 22:07:05.732644400,6.461644287109375,0.1118814945220947,-0.4938269555568695,-0.367101788520813
2024-12-04 22:07:05.742670300,6.47167041015625,0.0505994968116283,-0.6114686727523804,-0.3308681547641754
2024-12-04 22:07:05.752697300,6.481697265625,0.0161342080682516,-0.7975080609321594,-0.2854950726032257
2024-12-04 22:07:05.762723300,6.491723388671875,-0.0054970518685877,-0.9555890560150146,-0.2370439320802688
2024-12-04 22:07:05.772750300,6.501750244140625,-0.0019127037376165,-1.009860873222351,-0.1966195404529571
2024-12-04 22:07:05.782776300,6.5117763671875,0.0204354785382747,-0.9701640009880066,-0.1765446364879608
2024-12-04 22:07:05.792802300,6.52180224609375,0.0492893084883689,-0.8236982822418213,-0.1762231439352035
2024-12-04 22:07:05.802829300,6.531829345703125,0.0742231532931327,-0.5782113075256348,-0.1951182633638382
2024-12-04 22:07:05.812855300,6.541855224609375,0.1038159057497978,-0.2978126108646393,-0.2182742804288864
2024-12-04 22:07:05.822882300,6.55188232421875,0.1522947698831558,-0.0925462767481803,-0.200520321726799
2024-12-04 22:07:05.832908300,6.561908203125,0.2190364450216293,-0.0190649162977933,-0.1292871534824371
2024-12-04 22:07:05.842934300,6.571934326171875,0.2464672774076461,-0.0529714860022068,-0.0314482003450393
2024-12-04 22:07:05.852961300,6.581961181640625,0.2262793183326721,-0.0991221591830253,0.0554260648787021
2024-12-04 22:07:05.862987300,6.5919873046875,0.1799216717481613,-0.1199326366186142,0.1065230742096901
2024-12-04 22:07:05.873014300,6.60201416015625,0.1077863425016403,-0.122282326221466,0.1043524965643882
2024-12-04 22:07:05.883040500,6.61204052734375,0.0054186945781111,-0.0803774818778038,0.0719373002648353
2024-12-04 22:07:05.893066500,6.62206640625,-0.1102561950683593,-0.0218856427818536,0.0281582884490489
2024-12-04 22:07:05.903093200,6.63209326171875,-0.223626434803009,0.0249931830912828,0.0060705640353262
2024-12-04 22:07:05.913118700,6.64211865234375,-0.2990111410617828,0.0582297295331954,-0.0018572367262095
2024-12-04 22:07:05.923145700,6.652145751953125,-0.3145493566989898,0.1414825320243835,0.0128205092623829
2024-12-04 22:07:05.933171700,6.662171630859375,-0.2759493291378021,0.2393129467964172,0.0466882959008216
2024-12-04 22:07:05.943197700,6.67219775390625,-0.2225631028413772,0.369006484746933,0.0631623417139053
2024-12-04 22:07:05.953224700,6.682224609375,-0.1727189123630523,0.5223130583763123,0.0388039648532867
2024-12-04 22:07:05.963250700,6.692250732421875,-0.1056724935770034,0.681188702583313,-0.0255092438310384
2024-12-04 22:07:05.973277700,6.702277587890625,-0.0347770228981971,0.8207926154136658,-0.1118986904621124
2024-12-04 22:07:05.983303700,6.7123037109375,0.0135505627840757,0.8756545186042786,-0.1669054925441742
2024-12-04 22:07:05.993329700,6.72232958984375,0.055380642414093,0.778519332408905,-0.1294600665569305
2024-12-04 22:07:06.003356700,6.732356689453125,0.0922233462333679,0.4950897395610809,0.0354380868375301
2024-12-04 22:07:06.013382700,6.742382568359375,0.1183834373950958,0.048890370875597,0.2944943308830261
2024-12-04 22:07:06.023408600,6.75240869140625,0.1488566547632217,-0.482014000415802,0.5904724597930908
2024-12-04 22:07:06.033436000,6.762435791015625,0.1632588505744934,-0.9794011116027832,0.8468385338783264
2024-12-04 22:07:06.043462000,6.7724619140625,0.1135088726878166,-1.3751678466796875,1.0328574180603027
2024-12-04 22:07:06.053488600,6.782488525390625,-0.0245096515864133,-1.6746176481246948,1.1411617994308472
2024-12-04 22:07:06.063514600,6.7925146484375,-0.1501117795705795,-1.907484769821167,1.1705721616744995
2024-12-04 22:07:06.073540600,6.80254052734375,-0.1916529387235641,-2.037813186645508,1.172720432281494
2024-12-04 22:07:06.083567600,6.812567626953125,-0.240232452750206,-2.0000061988830566,1.1303426027297974
2024-12-04 22:07:06.093593900,6.82259375,-0.3363936841487884,-1.7726503610610962,1.0736576318740845
2024-12-04 22:07:06.103620900,6.832620849609375,-0.4937098026275635,-1.4809304475784302,1.1041353940963743
2024-12-04 22:07:06.113646800,6.842646728515625,-0.7036440372467041,-1.2818782329559326,1.2227202653884888
2024-12-04 22:07:06.123672800,6.8526728515625,-0.9074624180793762,-1.252936601638794,1.3912405967712402
2024-12-04 22:07:06.133699600,6.862699462890625,-1.0789519548416138,-1.2323691844940186,1.4804106950759888
2024-12-04 22:07:06.143725600,6.8727255859375,-1.2036070823669434,-1.15574848651886,1.4742470979690552
2024-12-04 22:07:06.153752800,6.8827529296875,-1.2800934314727783,-1.051230788230896,1.3672478199005127
2024-12-04 22:07:06.163778800,6.89277880859375,-1.2858351469039917,-0.9953195452690125,1.2040802240371704
2024-12-04 22:07:06.173804800,6.9028046875,-1.2712748050689695,-1.0525710582733154,1.0114829540252686
2024-12-04 22:07:06.183831800,6.912831787109375,-1.2675831317901611,-1.147925853729248,0.8480050563812256
2024-12-04 22:07:06.193857800,6.92285791015625,-1.280161738395691,-1.2082220315933228,0.7433748245239258
2024-12-04 22:07:06.203884800,6.932884765625,-1.3141255378723145,-1.1937991380691528,0.686357855796814
2024-12-04 22:07:06.213910800,6.942910888671875,-1.3708711862564087,-1.0478591918945312,0.6667209267616272
2024-12-04 22:07:06.223936800,6.952936767578125,-1.4200986623764038,-0.8154790997505188,0.6834564805030823
2024-12-04 22:07:06.233963800,6.9629638671875,-1.4354102611541748,-0.6060976982116699,0.7230457067489624
2024-12-04 22:07:06.243989800,6.97298974609375,-1.4582574367523191,-0.5008459687232971,0.75663822889328
2024-12-04 22:07:06.254016500,6.9830166015625,-1.4647347927093506,-0.4996502101421356,0.8075277805328369
2024-12-04 22:07:06.264042500,6.99304248046875,-1.4694925546646118,-0.6125109791755676,0.8567461967468262
2024-12-04 22:07:06.274068700,7.00306884765625,-1.4746217727661133,-0.8314518332481384,0.8665634989738464
2024-12-04 22:07:06.284095700,7.013095703125,-1.4651585817337036,-1.1171233654022217,0.8322476148605347
2024-12-04 22:07:06.294121700,7.023121826171875,-1.4666457176208496,-1.3965798616409302,0.7717432379722595
2024-12-04 22:07:06.304148700,7.033148681640625,-1.5318108797073364,-1.536360502243042,0.7391741275787354
2024-12-04 22:07:06.314174700,7.0431748046875,-1.6732807159423828,-1.4203544855117798,0.7940858006477356
2024-12-04 22:07:06.324200700,7.05320068359375,-1.7938358783721924,-0.7445711493492126,1.030004858970642
2024-12-04 22:07:06.334227700,7.063227783203125,-1.880199313163757,0.2191079705953598,1.450001835823059
2024-12-04 22:07:06.344253700,7.073253662109375,-1.944674015045166,0.902113139629364,1.833890914916992
2024-12-04 22:07:06.354280700,7.08328076171875,-1.9395291805267327,1.2585583925247192,2.0885255336761475
2024-12-04 22:07:06.364306700,7.093306640625,-1.8512051105499268,1.4478007555007937,2.291395664215088
2024-12-04 22:07:06.374332700,7.103332763671875,-1.7154114246368408,1.5842926502227783,2.433600902557373
2024-12-04 22:07:06.384360000,7.11335986328125,-1.613263487815857,1.6746264696121216,2.496378898620605
2024-12-04 22:07:06.394386000,7.123385986328125,-1.5617858171463013,1.8056466579437256,2.5302534103393555
2024-12-04 22:07:06.404412700,7.13341259765625,-1.5068610906600952,1.9669643640518188,2.555328130722046
2024-12-04 22:07:06.414438700,7.143438720703125,-1.4450485706329346,2.0543508529663086,2.563347816467285
2024-12-04 22:07:06.424464600,7.153464599609375,-1.3779017925262451,2.021063327789306,2.507076501846313
2024-12-04 22:07:06.434491600,7.16349169921875,-1.2969143390655518,1.940717101097107,2.368346691131592
2024-12-04 22:07:06.444518000,7.173517822265625,-1.2315691709518433,1.8201617002487185,2.140256404876709
2024-12-04 22:07:06.454545000,7.183544921875,-1.1541460752487185,1.7134597301483154,1.885462760925293
2024-12-04 22:07:06.464571000,7.19357080078125,-1.047102451324463,1.6186227798461914,1.6444262266159058
2024-12-04 22:07:06.474596900,7.203596923828125,-0.9084709286689758,1.5356738567352295,1.431172490119934
2024-12-04 22:07:06.484623600,7.21362353515625,-0.7753509879112244,1.4756786823272705,1.236540913581848
2024-12-04 22:07:06.494649600,7.223649658203125,-0.6673758625984192,1.4255932569503784,1.0459990501403809
2024-12-04 22:07:06.504676900,7.2336767578125,-0.6000389456748962,1.3490023612976074,0.8398597836494446
2024-12-04 22:07:06.514702800,7.243702880859375,-0.5533549189567566,1.186711668968201,0.5934030413627625
2024-12-04 22:07:06.524728800,7.253728759765625,-0.5253205895423889,1.0459598302841189,0.3084621429443359
2024-12-04 22:07:06.534755600,7.263755615234375,-0.4811400473117828,0.9556779265403748,0.0025242960546165
2024-12-04 22:07:06.544781600,7.273781494140625,-0.3902927041053772,0.927872121334076,-0.2877482771873474
2024-12-04 22:07:06.554807600,7.2838076171875,-0.2771494686603546,0.8719997406005859,-0.5763734579086304
2024-12-04 22:07:06.564834800,7.293834716796875,-0.173652097582817,0.7552433013916016,-0.8788086771965027
2024-12-04 22:07:06.574860800,7.30386083984375,-0.0628790333867073,0.6270050406455994,-1.211132526397705
2024-12-04 22:07:06.584887800,7.3138876953125,0.0779832750558853,0.4673773050308227,-1.5454529523849487
2024-12-04 22:07:06.594913800,7.323913818359375,0.2413508743047714,0.2608433663845062,-1.859226107597351
2024-12-04 22:07:06.604939800,7.333939697265625,0.4403414726257324,0.0207601804286241,-2.1468021869659424
2024-12-04 22:07:06.614966500,7.343966552734375,0.6844797134399414,-0.2523485422134399,-2.3898069858551025
2024-12-04 22:07:06.624992800,7.35399267578125,0.9313275814056396,-0.6093341112136841,-2.592860460281372
2024-12-04 22:07:06.635019800,7.364019775390625,1.0821466445922852,-1.0020949840545654,-2.7522521018981934
2024-12-04 22:07:06.645045800,7.374045654296875,1.163597822189331,-1.5307371616363523,-2.68460750579834
2024-12-04 22:07:06.655071700,7.38407177734375,1.2656514644622805,-1.901756167411804,-2.649458169937134
2024-12-04 22:07:06.665098800,7.3940986328125,1.5869303941726685,-2.0085577964782715,-2.56563138961792
2024-12-04 22:07:06.675124700,7.404124755859375,2.243901014328003,-1.7369513511657717,-2.4697306156158447
2024-12-04 22:07:06.685151700,7.41415185546875,2.9722845554351807,-2.176133155822754,-2.3697967529296875
2024-12-04 22:07:06.695177700,7.424177734375,3.133080244064331,-3.3661513328552246,-2.150897264480591
2024-12-04 22:07:06.705203700,7.43420361328125,2.2377710342407227,-3.392669200897217,-1.8065229654312127
2024-12-04 22:07:06.715230700,7.444230712890625,0.9763042330741882,-1.9374419450759888,-1.3890244960784912
2024-12-04 22:07:06.725256700,7.454256591796875,0.0511527135968208,-0.2657683193683624,-1.0817264318466189
2024-12-04 22:07:06.735284000,7.464283935546875,-0.42282435297966,0.5042284727096558,-0.7733207941055298
2024-12-04 22:07:06.745310000,7.47431005859375,-0.5418705344200134,0.5727249383926392,-0.4367150962352752
2024-12-04 22:07:06.755335700,7.484335693359375,-0.455036997795105,0.2838601171970367,-0.2654505670070648
2024-12-04 22:07:06.765362700,7.49436279296875,-0.1201873645186424,-0.0937614813446998,-0.3325947225093841
2024-12-04 22:07:06.775388700,7.504388671875,0.5467791557312012,-0.4531373083591461,-0.6554356217384338
2024-12-04 22:07:06.785415700,7.514415771484375,1.4073634147644043,-0.6982488632202148,-1.129802107810974
2024-12-04 22:07:06.795441700,7.524441650390625,2.060662031173706,-1.0224000215530396,-1.5302101373672483
2024-12-04 22:07:06.805468000,7.534468017578125,2.398515462875366,-1.485400676727295,-1.7278715372085571
2024-12-04 22:07:06.815494700,7.54449462890625,2.343650579452514,-1.744316339492798,-1.7693222761154177
2024-12-04 22:07:06.825520600,7.554520751953125,1.9952731132507324,-1.582455039024353,-1.8090076446533203
2024-12-04 22:07:06.835547600,7.564547607421875,1.497222065925598,-1.2023142576217651,-1.869023561477661
2024-12-04 22:07:06.845573600,7.57457373046875,1.034731149673462,-0.8925039768218994,-1.8721919059753416
2024-12-04 22:07:06.855599600,7.584599609375,0.7500811815261841,-0.6460006237030029,-1.826310515403748
2024-12-04 22:07:06.865627000,7.594626953125,0.6126889586448669,-0.4649661481380462,-1.725795865058899
2024-12-04 22:07:06.875652900,7.60465283203125,0.5991696119308472,-0.3142632842063904,-1.5724047422409058
2024-12-04 22:07:06.885679600,7.6146796875,0.6331613659858704,-0.121185727417469,-1.4155142307281494
2024-12-04 22:07:06.895705600,7.62470556640625,0.7602571249008179,0.1611289232969284,-1.2528549432754517
2024-12-04 22:07:06.905731600,7.634731689453125,0.9466440677642822,0.4965039789676666,-1.0765118598937988
2024-12-04 22:07:06.915759600,7.644759521484375,1.078925609588623,0.7665453553199768,-0.8776552081108093
2024-12-04 22:07:06.925785600,7.65478564453125,1.130698323249817,0.8975334763526917,-0.6602237820625305
2024-12-04 22:07:06.935812400,7.664812255859375,1.0930254459381104,0.9871804118156432,-0.4346731603145599
2024-12-04 22:07:06.945838300,7.67483837890625,0.9837695956230164,1.084240436553955,-0.2204492837190628
2024-12-04 22:07:06.955864300,7.6848642578125,0.8524496555328369,1.2871209383010864,-0.0312673225998878
2024-12-04 22:07:06.965891600,7.6948916015625,0.735276997089386,1.56987202167511,0.1280972957611084
2024-12-04 22:07:06.975917600,7.70491748046875,0.6449660062789917,1.8092219829559328,0.2347078919410705
2024-12-04 22:07:06.985943600,7.714943603515625,0.5935366153717041,1.9038935899734497,0.2807427644729614
2024-12-04 22:07:06.995970600,7.724970458984375,0.5575128197669983,1.841444492340088,0.2730400562286377
2024-12-04 22:07:07.005996500,7.73499658203125,0.5369274020195007,1.6676537990570068,0.2133338451385498
2024-12-04 22:07:07.016023300,7.745023193359375,0.5121527910232544,1.400800704956055,0.1339922547340393
2024-12-04 22:07:07.026049300,7.75504931640625,0.4894631505012512,1.096953511238098,0.049278974533081
2024-12-04 22:07:07.036076500,7.76507666015625,0.4857806861400604,0.827102780342102,-0.0398668758571147
2024-12-04 22:07:07.046102500,7.7751025390625,0.5052633285522461,0.6546130180358887,-0.1249652579426765
2024-12-04 22:07:07.056128500,7.78512841796875,0.5270453095436096,0.5634371638298035,-0.1707427203655243
2024-12-04 22:07:07.066155500,7.795155517578125,0.5518036484718323,0.531557023525238,-0.1840428113937378
2024-12-04 22:07:07.076181500,7.805181396484375,0.5589470267295837,0.538297712802887,-0.1800848245620727
2024-12-04 22:07:07.086207500,7.81520751953125,0.5353463888168335,0.6297328472137451,-0.1659945696592331
2024-12-04 22:07:07.096234500,7.825234375,0.4945048391819,0.7864594459533691,-0.1726215332746505
2024-12-04 22:07:07.106260500,7.835260498046875,0.4473128318786621,0.9514784812927246,-0.2082889825105667
2024-12-04 22:07:07.116287500,7.84528759765625,0.3647381961345672,1.1288650035858154,-0.2380756884813308
2024-12-04 22:07:07.126313500,7.8553134765625,0.2715379297733307,1.256687879562378,-0.2756877839565277
2024-12-04 22:07:07.136339500,7.86533935546875,0.1745582073926925,1.294259548187256,-0.3255388736724853
2024-12-04 22:07:07.146366700,7.87536669921875,0.0775293931365013,1.2923226356506348,-0.3232301771640777
2024-12-04 22:07:07.156392400,7.885392333984375,0.005476014688611,1.3124361038208008,-0.2683295309543609
2024-12-04 22:07:07.166419500,7.89541943359375,-0.0173914842307567,1.3125416040420532,-0.1852010637521743
2024-12-04 22:07:07.176445400,7.905445556640625,-0.0020728101953864,1.2414286136627195,-0.1011624634265899
2024-12-04 22:07:07.186472400,7.915472412109375,0.0073369368910789,1.160946488380432,-0.0490087196230888
2024-12-04 22:07:07.196498400,7.92549853515625,-0.000516090542078,1.0721156597137451,-0.0423698313534259
2024-12-04 22:07:07.206524400,7.9355244140625,0.0044632218778133,0.9176114797592164,-0.0614274106919765
2024-12-04 22:07:07.216551400,7.945551513671875,0.0159128662198781,0.6925820708274841,-0.0982829928398132
2024-12-04 22:07:07.226577400,7.955577392578125,0.011118377558887,0.4717402756214142,-0.167713463306427
2024-12-04 22:07:07.236603400,7.965603271484375,-0.0079853301867842,0.2484142631292343,-0.2619900703430176
2024-12-04 22:07:07.246630400,7.97563037109375,-0.0421701967716217,0.0568485632538795,-0.3396638333797455
2024-12-04 22:07:07.256656400,7.985656494140625,-0.0913676023483276,-0.1176042929291725,-0.3850959241390228
2024-12-04 22:07:07.266683600,7.99568359375,-0.1585607677698135,-0.2530555725097656,-0.4303566217422485
2024-12-04 22:07:07.276709600,8.005709716796876,-0.2039219737052917,-0.3347737789154053,-0.4892771244049072
2024-12-04 22:07:07.286735600,8.015735595703125,-0.204815998673439,-0.380034476518631,-0.5648190379142761
2024-12-04 22:07:07.296762400,8.025762451171875,-0.1723181158304214,-0.4062997102737427,-0.6655613780021667
2024-12-04 22:07:07.306788400,8.035788330078125,-0.1158266067504882,-0.4273256361484527,-0.7866411805152893
2024-12-04 22:07:07.316815400,8.0458154296875,-0.0058221104554831,-0.4451462924480438,-0.8872926235198975
2024-12-04 22:07:07.326841600,8.055841552734375,0.1213113367557525,-0.4464709460735321,-0.9377139806747437
2024-12-04 22:07:07.336867600,8.06586767578125,0.2347794324159622,-0.4337479472160339,-0.9269306659698486
2024-12-04 22:07:07.346894600,8.07589453125,0.3220504224300384,-0.4319801330566406,-0.8523539304733276
2024-12-04 22:07:07.356920600,8.085920654296874,0.3579791486263275,-0.4206426739692688,-0.7202924489974976
2024-12-04 22:07:07.366947300,8.095947265625,0.3556840419769287,-0.4078238010406494,-0.5551251173019409
2024-12-04 22:07:07.376973300,8.105973388671876,0.3328683078289032,-0.3949988782405853,-0.3742147982120514
2024-12-04 22:07:07.386999300,8.115999267578125,0.3082377910614013,-0.3404770493507385,-0.2252045273780822
2024-12-04 22:07:07.397026600,8.126026611328125,0.274025022983551,-0.2633377909660339,-0.1470253020524978
2024-12-04 22:07:07.407052500,8.136052490234375,0.1905319839715957,-0.2161076962947845,-0.1440265774726867
2024-12-04 22:07:07.417079600,8.14607958984375,0.0809635818004608,-0.2678841352462768,-0.1636419743299484
2024-12-04 22:07:07.427105500,8.15610546875,-0.0294023379683494,-0.4173907935619354,-0.1406165510416031
2024-12-04 22:07:07.437131500,8.166131591796875,-0.1197544112801551,-0.5966517925262451,-0.0428207106888294
2024-12-04 22:07:07.447158500,8.176158447265625,-0.171668455004692,-0.6866682171821594,0.1232891678810119
2024-12-04 22:07:07.457184500,8.1861845703125,-0.1814288049936294,-0.577622652053833,0.3295525908470154
2024-12-04 22:07:07.467211500,8.19621142578125,-0.1872147917747497,-0.2916854918003082,0.5100401043891907
2024-12-04 22:07:07.477237500,8.206237548828126,-0.2050218284130096,0.1027337312698364,0.5942867994308472
2024-12-04 22:07:07.487263500,8.216263427734376,-0.221545398235321,0.5142933130264282,0.5581032037734985
2024-12-04 22:07:07.497290500,8.22629052734375,-0.2468536347150802,0.8829421997070312,0.4242865443229675
2024-12-04 22:07:07.507316500,8.23631640625,-0.2391837239265442,1.1287626028060913,0.2435125261545181
2024-12-04 22:07:07.517343500,8.246343505859375,-0.1532295197248459,1.1422955989837646,0.0984386876225471
2024-12-04 22:07:07.527369500,8.256369384765625,-0.0274870470166206,0.8530505895614624,0.0832472220063209
2024-12-04 22:07:07.537395500,8.2663955078125,0.0768058598041534,0.2788546979427337,0.2401425540447235
2024-12-04 22:07:07.547422500,8.27642236328125,0.1079858839511871,-0.5346153378486633,0.5345510244369507
2024-12-04 22:07:07.557448400,8.286448486328124,0.0774472281336784,-1.456022024154663,0.8509896993637085
2024-12-04 22:07:07.567475500,8.296475341796874,0.07075896859169,-2.304596424102783,1.063080668449402
2024-12-04 22:07:07.577501400,8.30650146484375,0.0843092501163482,-2.9343338012695312,1.1269546747207642
2024-12-04 22:07:07.587527400,8.31652734375,0.0717266127467155,-3.340816020965576,1.0701342821121216
2024-12-04 22:07:07.597554400,8.326554443359376,0.0024300699587911,-3.602116346359253,0.954986810684204
2024-12-04 22:07:07.607580400,8.336580322265625,-0.1129886656999588,-3.772595643997192,0.8322611451148987
2024-12-04 22:07:07.617607700,8.346607666015625,-0.260133147239685,-3.7977097034454346,0.7245076894760132
2024-12-04 22:07:07.627633700,8.356633544921875,-0.4243210256099701,-3.649564027786255,0.6352209448814392
2024-12-04 22:07:07.637659600,8.36665966796875,-0.6128403544425964,-3.369783639907837,0.565028965473175
2024-12-04 22:07:07.647686400,8.376686279296875,-0.8177276849746704,-3.19334363937378,0.6584909558296204
2024-12-04 22:07:07.657712400,8.38671240234375,-0.9346261024475098,-2.969757556915283,0.8762937188148499
2024-12-04 22:07:07.667739400,8.396739501953125,-0.9085516333580016,-2.5757932662963867,1.1148148775100708
2024-12-04 22:07:07.677765400,8.406765380859374,-0.7776844501495361,-2.0884010791778564,1.2980260848999023
2024-12-04 22:07:07.687791600,8.41679150390625,-0.6806463003158569,-1.5715593099594116,1.349529504776001
2024-12-04 22:07:07.697818600,8.426818603515626,-0.7052118182182312,-0.9392222762107848,1.2299832105636597
2024-12-04 22:07:07.707844600,8.4368447265625,-0.9180026054382324,-0.3417790830135345,1.0244656801223757
2024-12-04 22:07:07.717871400,8.446871337890625,-1.1917892694473269,-0.1596721559762954,0.8615423440933228
2024-12-04 22:07:07.727897300,8.4568974609375,-1.394750714302063,-0.2343679666519165,0.7484408617019653
2024-12-04 22:07:07.737923300,8.46692333984375,-1.4689477682113647,-0.3949342370033264,0.6733534336090088
2024-12-04 22:07:07.747950600,8.47695068359375,-1.477060079574585,-0.5472952723503113,0.5995321869850159
2024-12-04 22:07:07.757976600,8.4869765625,-1.4746748208999634,-0.6901386976242065,0.5495502948760986
2024-12-04 22:07:07.768002600,8.49700244140625,-1.4813882112503052,-0.7825959324836731,0.5106106400489807
2024-12-04 22:07:07.778029600,8.507029541015624,-1.521756291389465,-0.7717679142951965,0.48070028424263
2024-12-04 22:07:07.788055300,8.51705517578125,-1.5785386562347412,-0.6310379505157471,0.4730325043201446
2024-12-04 22:07:07.798082600,8.52708251953125,-1.606974959373474,-0.4146459698677063,0.4955007135868072
2024-12-04 22:07:07.808108500,8.537108642578126,-1.593924045562744,-0.177195593714714,0.5548561811447144
2024-12-04 22:07:07.818135600,8.547135498046876,-1.5824686288833618,0.0949281528592109,0.7311429977416992
2024-12-04 22:07:07.828161500,8.55716162109375,-1.6275830268859863,0.201476439833641,0.955771028995514
2024-12-04 22:07:07.838187500,8.5671875,-1.719565987586975,0.1333054304122924,1.1491445302963257
2024-12-04 22:07:07.848214300,8.57721435546875,-1.805221676826477,0.0323274172842502,1.2972829341888428
2024-12-04 22:07:07.858240300,8.587240234375,-1.8295798301696773,0.2772852182388305,1.4672242403030396
2024-12-04 22:07:07.868267500,8.597267578125,-1.808254599571228,0.7692080736160278,1.7104417085647583
2024-12-04 22:07:07.878293500,8.60729345703125,-1.7331658601760864,1.2096765041351318,1.987592101097107
2024-12-04 22:07:07.888319500,8.617319580078124,-1.657522439956665,1.4589524269104004,2.1675593852996826
2024-12-04 22:07:07.898346500,8.627346435546874,-1.6267988681793213,1.6021764278411863,2.2620859146118164
2024-12-04 22:07:07.908372200,8.637372314453126,-1.6480551958084106,1.711065411567688,2.333918809890747
2024-12-04 22:07:07.918398200,8.647398193359376,-1.699610710144043,1.8993161916732788,2.393437385559082
2024-12-04 22:07:07.928425200,8.65742529296875,-1.7136019468307495,2.09433388710022,2.4066953659057617
2024-12-04 22:07:07.938451200,8.667451171875,-1.6561745405197144,2.181365728378296,2.329760789871216
2024-12-04 22:07:07.948478200,8.677478271484375,-1.5272116661071775,2.066939115524292,2.1237833499908447
2024-12-04 22:07:07.958504200,8.687504150390625,-1.368014931678772,1.8539628982543943,1.81102192401886
2024-12-04 22:07:07.968530200,8.6975302734375,-1.2425439357757568,1.7119373083114624,1.4813004732131958
2024-12-04 22:07:07.978557400,8.707557373046875,-1.128024339675903,1.7174320220947266,1.212137222290039
2024-12-04 22:07:07.988583400,8.71758349609375,-1.0395562648773191,1.797577977180481,1.0246927738189695
2024-12-04 22:07:07.998610200,8.727610107421874,-0.9665961265563964,1.7923365831375122,0.8870967030525208
2024-12-04 22:07:08.008636200,8.73763623046875,-0.9105325937271118,1.7166860103607178,0.7812384366989136
2024-12-04 22:07:08.018662100,8.747662109375,-0.8363938331604004,1.6219381093978882,0.6653506755828857
2024-12-04 22:07:08.028689200,8.757689208984376,-0.7465674877166748,1.5182290077209473,0.5028507113456726
2024-12-04 22:07:08.038715100,8.767715087890625,-0.674677848815918,1.3726751804351809,0.2916921973228454
2024-12-04 22:07:08.048742400,8.777742431640625,-0.6239334344863892,1.1857104301452637,0.0277833137661218
2024-12-04 22:07:08.058768400,8.787768310546875,-0.5685280561447144,1.0228387117385864,-0.2602862417697906
2024-12-04 22:07:08.068794400,8.79779443359375,-0.497972160577774,0.8651852011680603,-0.5441009402275085
2024-12-04 22:07:08.078821000,8.807821044921875,-0.4148575365543365,0.6332666277885437,-0.7916594743728638
2024-12-04 22:07:08.088847000,8.81784716796875,-0.3241529464721679,0.3773975670337677,-0.9769046902656556
2024-12-04 22:07:08.098874400,8.827874267578125,-0.2544507980346679,0.1919400691986084,-1.10722815990448
2024-12-04 22:07:08.108900400,8.837900390625,-0.210646316409111,0.0877060666680336,-1.2345010042190552
2024-12-04 22:07:08.118926300,8.84792626953125,-0.1780315488576889,0.0365922190248966,-1.388675570487976
2024-12-04 22:07:08.128953300,8.857953369140626,-0.1274051219224929,-0.0052087549120187,-1.5534319877624512
2024-12-04 22:07:08.138979000,8.86797900390625,-0.0522334575653076,-0.0594729632139205,-1.709148645401001
2024-12-04 22:07:08.149006000,8.878006103515625,0.0488327071070671,-0.1451766937971115,-1.8274816274642944
2024-12-04 22:07:08.159032300,8.8880322265625,0.193098708987236,-0.2951232492923736,-1.8777318000793457
2024-12-04 22:07:08.169058300,8.898058349609375,0.3817881941795349,-0.5009845495223999,-1.8543663024902344
2024-12-04 22:07:08.179085300,8.908085205078125,0.5625543594360352,-0.8127273321151733,-1.699799418449402
2024-12-04 22:07:08.189111300,8.918111328125,0.642360508441925,-1.2841843366622925,-1.3813396692276
2024-12-04 22:07:08.199138000,8.928137939453125,0.4756749868392944,-2.071181535720825,-0.6991323828697205
2024-12-04 22:07:08.209164000,8.9381640625,0.4973589777946472,-1.9270755052566528,-0.3535009324550628
2024-12-04 22:07:08.219190000,8.94818994140625,0.9778458476066588,-1.2789969444274902,-0.6699066758155823
2024-12-04 22:07:08.229217300,8.95821728515625,1.563663363456726,-0.8103684782981873,-1.1778098344802856
2024-12-04 22:07:08.239243300,8.9682431640625,1.883187890052796,-0.5994113087654114,-1.638820767402649
2024-12-04 22:07:08.249270300,8.978270263671876,1.5387922525405884,-1.3149644136428833,-1.6804898977279663
2024-12-04 22:07:08.259296300,8.988296142578125,0.8908664584159851,-1.5301419496536257,-1.3377280235290527
2024-12-04 22:07:08.269322200,8.998322265625,0.5119878053665161,-0.7266678214073181,-1.1212180852890017
2024-12-04 22:07:08.279349200,9.008349365234375,0.4885125458240509,0.1603779196739196,-1.099443435668945
2024-12-04 22:07:08.289375200,9.018375244140625,0.6549031138420105,0.5235811471939087,-1.1159230470657349
2024-12-04 22:07:08.299402200,9.02840234375,0.8448912501335144,0.2939975559711456,-1.0852408409118652
2024-12-04 22:07:08.309428200,9.03842822265625,1.0352593660354614,-0.1205229088664054,-1.0628035068511963
2024-12-04 22:07:08.319454200,9.0484541015625,1.2323544025421145,-0.4199555218219757,-1.1352566480636597
2024-12-04 22:07:08.329481200,9.058481201171874,1.3564457893371582,-0.6032923460006714,-1.2656320333480835
2024-12-04 22:07:08.339507500,9.068507568359376,1.4015978574752808,-0.7228347063064575,-1.4175097942352295
2024-12-04 22:07:08.349534200,9.0785341796875,1.3965002298355105,-0.6988129615783691,-1.5620925426483154
2024-12-04 22:07:08.359560200,9.088560302734376,1.3471567630767822,-0.5812507271766663,-1.6241179704666138
2024-12-04 22:07:08.369586200,9.098586181640623,1.236567497253418,-0.4627581834793091,-1.6083393096923828
2024-12-04 22:07:08.379613200,9.10861328125,1.0904985666275024,-0.4001032412052154,-1.5524895191192627
2024-12-04 22:07:08.389639200,9.11863916015625,0.9455805420875548,-0.3951130211353302,-1.476279377937317
2024-12-04 22:07:08.399666400,9.12866650390625,0.8398332595825195,-0.3643539845943451,-1.4109811782836914
2024-12-04 22:07:08.409692200,9.138692138671876,0.7675974369049072,-0.3325438499450683,-1.3492733240127563
2024-12-04 22:07:08.419718100,9.14871826171875,0.7162488102912903,-0.3693903386592865,-1.270324468612671
2024-12-04 22:07:08.429745200,9.1587451171875,0.6824408173561096,-0.4139282405376434,-1.180346965789795
2024-12-04 22:07:08.439771100,9.168771240234374,0.6846975684165955,-0.3644583523273468,-1.1415365934371948
2024-12-04 22:07:08.449798400,9.17879833984375,0.7309929132461548,-0.2527605891227722,-1.1352417469024658
2024-12-04 22:07:08.459824400,9.188824462890626,0.7860391139984131,-0.1946003884077072,-1.078900694847107
2024-12-04 22:07:08.469850400,9.198850341796875,0.8706714510917664,-0.1129372268915176,-0.9610565900802612
2024-12-04 22:07:08.479877000,9.208877197265624,0.914334237575531,-0.0734229162335395,-0.8183473944664001
2024-12-04 22:07:08.489903000,9.218903076171877,0.8808367252349854,0.0249918047338724,-0.6357272863388062
2024-12-04 22:07:08.499930000,9.22893017578125,0.7946110367774963,0.19966721534729,-0.4500084519386291
2024-12-04 22:07:08.509956000,9.2389560546875,0.7034854292869568,0.3513438105583191,-0.2997084259986877
2024-12-04 22:07:08.519982300,9.248982421875,0.6392006278038025,0.473742812871933,-0.1848931014537811
2024-12-04 22:07:08.530009300,9.25900927734375,0.5939474105834961,0.6393906474113464,-0.1059564799070358
2024-12-04 22:07:08.540035300,9.269035400390624,0.5660102367401123,0.8424491286277771,-0.0453167222440242
2024-12-04 22:07:08.550062000,9.27906201171875,0.5499324798583984,1.011087417602539,0.0130986487492918
2024-12-04 22:07:08.560088000,9.289088134765626,0.5315521955490112,1.0777065753936768,0.0534882582724094
2024-12-04 22:07:08.570114000,9.299114013671876,0.5045520067214966,1.014772891998291,0.0667044594883918
2024-12-04 22:07:08.580141300,9.309141357421876,0.4854231178760528,0.8801277875900269,0.0549535229802131
2024-12-04 22:07:08.590167300,9.319167236328123,0.492554247379303,0.7732197046279907,0.0300811938941478
2024-12-04 22:07:08.600194300,9.3291943359375,0.5115551948547363,0.768127977848053,-0.000703879573848
2024-12-04 22:07:08.610220300,9.33922021484375,0.5251189470291138,0.8519530892372131,-0.0471757724881172
2024-12-04 22:07:08.620246300,9.349246337890625,0.5164549946784973,0.9353182315826416,-0.1030466482043266
2024-12-04 22:07:08.630273300,9.359273193359376,0.488627940416336,0.9490752816200256,-0.1567815095186233
2024-12-04 22:07:08.640299300,9.36929931640625,0.4549247026443481,0.8845328092575073,-0.1898089796304702
2024-12-04 22:07:08.650325200,9.3793251953125,0.4215611517429352,0.7486391663551331,-0.1988991349935531
2024-12-04 22:07:08.660352300,9.389352294921874,0.3864563405513763,0.6007843613624573,-0.2028643786907196
2024-12-04 22:07:08.670378200,9.399378173828126,0.3459944128990173,0.505404531955719,-0.2082298398017883
2024-12-04 22:07:08.680405200,9.4094052734375,0.2998022139072418,0.462056428194046,-0.2139699906110763
2024-12-04 22:07:08.690431200,9.41943115234375,0.2464455217123031,0.4521039426326751,-0.2104868441820144
2024-12-04 22:07:08.700457200,9.429457275390623,0.1881666779518127,0.4860776662826538,-0.2002055495977401
2024-12-04 22:07:08.710484200,9.439484130859377,0.1332373768091201,0.5744038224220276,-0.1857515126466751
2024-12-04 22:07:08.720510200,9.44951025390625,0.0946084931492805,0.6951634883880615,-0.1694710701704025
2024-12-04 22:07:08.730537200,9.459537109375,0.0723202303051948,0.8033248782157898,-0.1561712473630905
2024-12-04 22:07:08.740563200,9.469563232421876,0.0590731538832187,0.8983857035636902,-0.142891064286232
2024-12-04 22:07:08.750590200,9.479590087890625,0.051176082342863,0.9659527540206908,-0.1513772308826446
2024-12-04 22:07:08.760616200,9.4896162109375,0.0574605092406272,0.9390211701393129,-0.1718882471323013
2024-12-04 22:07:08.770642200,9.49964208984375,0.0679051578044891,0.810189425945282,-0.1857766360044479
2024-12-04 22:07:08.780669200,9.509669189453126,0.077202022075653,0.6232313513755798,-0.1966267228126526
2024-12-04 22:07:08.790695200,9.519695068359376,0.086873821914196,0.4265798330307007,-0.2025133818387985
2024-12-04 22:07:08.800721200,9.52972119140625,0.0915034636855125,0.2295913845300674,-0.190744861960411
2024-12-04 22:07:08.810748400,9.53974853515625,0.0896685868501663,0.0601129159331321,-0.1833965182304382
2024-12-04 22:07:08.820774400,9.5497744140625,0.0830378979444503,-0.0587115697562694,-0.2138218432664871
2024-12-04 22:07:08.830801200,9.55980126953125,0.0849732160568237,-0.1209376603364944,-0.2892923653125763
2024-12-04 22:07:08.840827100,9.5698271484375,0.1007079258561134,-0.151520773768425,-0.4013405442237854
2024-12-04 22:07:08.850853000,9.57985302734375,0.1224595606327056,-0.2259611785411834,-0.5049535036087036
2024-12-04 22:07:08.860880100,9.589880126953124,0.1437970697879791,-0.3538238108158111,-0.5591208934783936
2024-12-04 22:07:08.870906000,9.599906005859374,0.1630445271730423,-0.523110032081604,-0.5793367028236389
2024-12-04 22:07:08.880933400,9.609933349609374,0.1820572912693023,-0.7083628177642822,-0.5688952207565308
2024-12-04 22:07:08.890959400,9.61995947265625,0.2102748155593872,-0.8388587832450867,-0.5024392604827881
2024-12-04 22:07:08.900985300,9.6299853515625,0.2270738631486892,-0.8380750417709351,-0.4141641557216644
2024-12-04 22:07:08.911012000,9.64001220703125,0.2273590862751007,-0.7069780230522156,-0.3169025778770447
2024-12-04 22:07:08.921038000,9.6500380859375,0.2229060381650924,-0.4774698317050934,-0.2306363135576248
2024-12-04 22:07:08.931065000,9.660065185546877,0.2209496796131134,-0.1868630200624466,-0.1962330639362335
2024-12-04 22:07:08.941091300,9.67009130859375,0.2214410752058029,0.0848050713539123,-0.209521010518074
2024-12-04 22:07:08.951117300,9.680117431640625,0.2374195158481598,0.2475537806749344,-0.2566709220409393
2024-12-04 22:07:08.961144300,9.690144287109376,0.2507756352424621,0.3045246005058288,-0.3270041346549988
2024-12-04 22:07:08.971170300,9.70017041015625,0.2620506286621094,0.2828589677810669,-0.4138809740543365
2024-12-04 22:07:08.981197000,9.710197021484374,0.2774338126182556,0.1940644681453704,-0.4976334273815155
2024-12-04 22:07:08.991223000,9.72022314453125,0.3026638031005859,0.0882128700613975,-0.5525683164596558
2024-12-04 22:07:09.001249000,9.7302490234375,0.3306096196174621,0.015702212229371,-0.577224850654602
2024-12-04 22:07:09.011276300,9.7402763671875,0.3612804412841797,-0.0007462697103619,-0.574167788028717
2024-12-04 22:07:09.021302300,9.75030224609375,0.3735747933387756,0.0254529397934675,-0.562283992767334
2024-12-04 22:07:09.031329300,9.760329345703123,0.3761375546455383,0.0722468122839927,-0.5588282942771912
2024-12-04 22:07:09.041355000,9.77035498046875,0.3737066984176636,0.1105052456259727,-0.561847448348999
2024-12-04 22:07:09.051381000,9.780381103515625,0.3622010350227356,0.1105963215231895,-0.5500975847244263
2024-12-04 22:07:09.061408300,9.790408203125,0.354381114244461,0.0509533025324344,-0.4938759207725525
2024-12-04 22:07:09.071434200,9.800434326171874,0.3514481782913208,-0.0096362773329019,-0.3891037106513977
2024-12-04 22:07:09.081461200,9.810461181640624,0.3412303328514099,0.0039287223480641,-0.28585284948349
2024-12-04 22:07:09.091487200,9.8204873046875,0.315708726644516,0.1031080409884452,-0.2261122763156891
2024-12-04 22:07:09.101513200,9.83051318359375,0.2622464299201965,0.2894460558891296,-0.2095300704240799
2024-12-04 22:07:09.111540000,9.8405400390625,0.179922804236412,0.5285188555717468,-0.2381401360034942
2024-12-04 22:07:09.121566200,9.850566162109375,0.0742977187037468,0.7826269865036011,-0.2838228344917297
2024-12-04 22:07:09.131593200,9.86059326171875,-0.0441181361675262,0.9915615320205688,-0.345523476600647
2024-12-04 22:07:09.141619200,9.870619140625,-0.1084195300936698,1.0983175039291382,-0.4078437387943268
2024-12-04 22:07:09.151645200,9.880645263671877,-0.0555001236498355,1.0262079238891602,-0.4060628712177276
2024-12-04 22:07:09.161672200,9.890672119140625,0.0902520939707756,0.7464738488197327,-0.2476146072149276
2024-12-04 22:07:09.171698200,9.9006982421875,0.2505000829696655,0.280670702457428,0.0980581119656562
2024-12-04 22:07:09.181725200,9.91072509765625,0.3663931787014007,-0.2899151146411896,0.5629585385322571
2024-12-04 22:07:09.191751200,9.920751220703124,0.399479478597641,-0.8230383992195129,1.011489987373352
2024-12-04 22:07:09.201777200,9.930777099609376,0.3770513236522674,-1.216743230819702,1.339215874671936
2024-12-04 22:07:09.211804200,9.94080419921875,0.3232903480529785,-1.4810603857040403,1.536987543106079
2024-12-04 22:07:09.221830100,9.950830078125,0.2088803350925445,-1.6481879949569702,1.6140589714050293
2024-12-04 22:07:09.231857400,9.960857421875,0.0389440171420574,-1.711041808128357,1.5649559497833252
2024-12-04 22:07:09.241883400,9.97088330078125,-0.1587415188550949,-1.6709880828857422,1.428913116455078
2024-12-04 22:07:09.251909400,9.980909423828123,-0.335759699344635,-1.5374854803085327,1.2524211406707764
2024-12-04 22:07:09.261936000,9.99093603515625,-0.4997449219226837,-1.3808332681655884,1.0713326930999756
2024-12-04 22:07:09.271962000,10.000962158203125,-0.6997129321098328,-1.320717215538025,0.9507392644882202
2024-12-04 22:07:09.281989000,10.010989013671876,-0.9296447038650512,-1.4783978462219238,0.950713276863098
2024-12-04 22:07:09.292015000,10.02101513671875,-1.154715895652771,-1.8285365104675293,1.081778049468994
2024-12-04 22:07:09.302041300,10.031041259765624,-1.3189923763275146,-2.199723720550537,1.250940442085266
2024-12-04 22:07:09.312068000,10.041068115234374,-1.3526310920715332,-2.439262866973877,1.3540886640548706
2024-12-04 22:07:09.322094000,10.051093994140626,-1.327475905418396,-2.4247918128967285,1.3199269771575928
2024-12-04 22:07:09.332121000,10.06112109375,-1.3116412162780762,-2.1031572818756104,1.1575300693511963
2024-12-04 22:07:09.342147000,10.07114697265625,-1.4027208089828491,-1.7451063394546509,0.9992227554321288
2024-12-04 22:07:09.352173000,10.081173095703123,-1.49088716506958,-1.4420721530914309,0.8930699825286865
2024-12-04 22:07:09.362200300,10.091200439453123,-1.5262761116027832,-1.1464073657989502,0.8226453065872192
2024-12-04 22:07:09.372226300,10.101226318359377,-1.5271700620651243,-0.8254021406173706,0.7771087288856506
2024-12-04 22:07:09.382253000,10.111253173828125,-1.4881733655929563,-0.4371140897274017,0.7756512761116028
2024-12-04 22:07:09.392279000,10.121279052734376,-1.4142669439315796,-0.0644981786608696,0.8259727954864502
2024-12-04 22:07:09.402305000,10.131304931640624,-1.3325941562652588,0.1654624491930008,0.8970133066177368
2024-12-04 22:07:09.412332300,10.141332275390624,-1.2677937746047974,0.2290624529123306,0.9665868282318116
2024-12-04 22:07:09.422358300,10.151358154296876,-1.2456718683242798,0.1314236372709274,1.0274242162704468
2024-12-04 22:07:09.432385300,10.16138525390625,-1.2619658708572388,-0.1409682035446167,1.078128695487976
2024-12-04 22:07:09.442411300,10.171411376953126,-1.278126835823059,-0.5269511342048645,1.0967434644699097
2024-12-04 22:07:09.452437200,10.181437255859375,-1.2965638637542725,-0.9716337323188782,1.0675407648086548
2024-12-04 22:07:09.462464000,10.191464111328123,-1.3119361400604248,-1.3521286249160769,1.0086853504180908
2024-12-04 22:07:09.472490000,10.201489990234377,-1.3128972053527832,-1.4014557600021362,0.9883773922920228
2024-12-04 22:07:09.482517200,10.211517333984377,-1.3677915334701538,-1.2024623155593872,0.9769729375839232
2024-12-04 22:07:09.492543200,10.221543212890625,-1.4998947381973269,-0.9318718314170836,0.9453124403953552
2024-12-04 22:07:09.502569200,10.2315693359375,-1.684763789176941,-0.6169993877410889,0.9783700704574584
2024-12-04 22:07:09.512596200,10.24159619140625,-1.8866984844207764,-0.2767698466777801,1.1117637157440186
2024-12-04 22:07:09.522622200,10.251622314453124,-2.043075561523437,0.0786015018820762,1.352234125137329
2024-12-04 22:07:09.532649200,10.261649169921874,-2.091713190078736,0.4013505280017853,1.6552690267562866
2024-12-04 22:07:09.542675200,10.27167529296875,-2.0351216793060303,0.6141535639762878,1.896681308746338
2024-12-04 22:07:09.552701200,10.281701171875,-1.9239503145217896,0.8331705927848816,2.047323942184448
2024-12-04 22:07:09.562728200,10.291728271484375,-1.7929779291152954,1.1246232986450195,2.134540319442749
2024-12-04 22:07:09.572754200,10.301754150390623,-1.6830500364303589,1.43355131149292,2.202759027481079
2024-12-04 22:07:09.582781200,10.31178125,-1.6386817693710327,1.6680320501327517,2.2385470867156982
2024-12-04 22:07:09.592807200,10.32180712890625,-1.5935488939285278,1.7996894121170044,2.21517014503479
2024-12-04 22:07:09.602833200,10.331833251953125,-1.4842666387557983,1.83716893196106,2.1096537113189697
2024-12-04 22:07:09.612860200,10.341860107421876,-1.3321210145950315,1.8114912509918213,1.935238122940064
2024-12-04 22:07:09.622886100,10.35188623046875,-1.1901479959487915,1.7465366125106812,1.736916184425354
2024-12-04 22:07:09.632913200,10.3619130859375,-1.0505152940750122,1.6969687938690186,1.5311006307601929
2024-12-04 22:07:09.642939100,10.371939208984376,-0.9017850756645204,1.666826605796814,1.3348588943481443
2024-12-04 22:07:09.652965400,10.38196533203125,-0.7435699105262756,1.5700675249099731,1.1339107751846311
2024-12-04 22:07:09.662992100,10.3919921875,-0.5889952182769775,1.3572545051574707,0.9205188751220704
2024-12-04 22:07:09.673018000,10.40201806640625,-0.4471963346004486,1.1185317039489746,0.7048798203468323
2024-12-04 22:07:09.683045000,10.412045166015623,-0.3231675922870636,0.9000770449638367,0.4872281849384308
2024-12-04 22:07:09.693071000,10.422071044921877,-0.2172872126102447,0.7529523372650146,0.2678207457065582
2024-12-04 22:07:09.703097000,10.43209716796875,-0.1455043405294418,0.695475161075592,0.0584866292774677
2024-12-04 22:07:09.713124400,10.442124267578125,-0.1054693013429641,0.7011157274246216,-0.1377369463443756
2024-12-04 22:07:09.723150300,10.452150390625,-0.0844932198524475,0.7107478976249695,-0.3244708180427551
2024-12-04 22:07:09.733177000,10.462177001953124,-0.0329932756721973,0.6583815813064575,-0.4958361685276031
2024-12-04 22:07:09.743203000,10.472203125,0.0660012885928154,0.4758609235286712,-0.6575389504432678
2024-12-04 22:07:09.753229000,10.48222900390625,0.1907693296670913,0.2258287370204925,-0.8420904278755188
2024-12-04 22:07:09.763256000,10.492256103515626,0.3071810603141784,0.0004137409850955,-1.07649028301239
2024-12-04 22:07:09.773282300,10.5022822265625,0.4057159125804901,-0.134254589676857,-1.3268859386444092
2024-12-04 22:07:09.783309300,10.512309326171875,0.5096815824508667,-0.2378557026386261,-1.553997278213501
2024-12-04 22:07:09.793335300,10.522335205078123,0.6458186507225037,-0.3925294280052185,-1.7345638275146484
2024-12-04 22:07:09.803361300,10.532361328125,0.843745231628418,-0.6039074063301086,-1.8764461278915403
2024-12-04 22:07:09.813388000,10.542387939453125,1.048264980316162,-0.919425129890442,-2.0490825176239014
2024-12-04 22:07:09.823414000,10.5524140625,1.1913864612579346,-1.5177878141403198,-2.102112531661988
2024-12-04 22:07:09.833441300,10.562441162109376,1.1361708641052246,-2.6174635887146,-1.7022314071655271
2024-12-04 22:07:09.843467300,10.57246728515625,1.136487364768982,-2.8885433673858643,-1.6083626747131348
2024-12-04 22:07:09.853493200,10.5824931640625,1.4200820922851562,-2.738071918487549,-1.8699405193328853
2024-12-04 22:07:09.863520300,10.592520263671876,1.960789918899536,-2.095097064971924,-2.184811353683472
2024-12-04 22:07:09.873546200,10.602546142578126,2.414963722229004,-1.8971185684204104,-2.318140983581543
2024-12-04 22:07:09.883573200,10.6125732421875,2.0682435035705566,-2.1504664421081543,-2.193018674850464
2024-12-04 22:07:09.893599200,10.62259912109375,1.1615248918533323,-1.5106998682022097,-1.9330872297286987
2024-12-04 22:07:09.903625200,10.632625244140623,0.4090427458286285,-0.6159586906433105,-1.58987557888031
2024-12-04 22:07:09.913652000,10.64265185546875,0.0655149519443512,-0.1951728463172912,-1.198046088218689
2024-12-04 22:07:09.923678000,10.652677978515625,0.0592253133654594,-0.0222981814295053,-0.920182168483734
2024-12-04 22:07:09.933704000,10.662703857421874,0.3066295385360718,0.1784160137176513,-0.8802672624588013
2024-12-04 22:07:09.943731000,10.67273095703125,0.7165718674659729,0.3099152147769928,-1.0011130571365356
2024-12-04 22:07:09.953757000,10.6827568359375,1.2460721731185913,0.2544420957565307,-1.1287275552749634
2024-12-04 22:07:09.963784000,10.692783935546874,1.6757214069366455,-0.0368218570947647,-1.2422531843185425
2024-12-04 22:07:09.973810000,10.702809814453126,1.8921905755996704,-0.3425322473049164,-1.390471577644348
2024-12-04 22:07:09.983836000,10.7128359375,1.942824125289917,-0.5218185186386108,-1.4863572120666504
2024-12-04 22:07:09.993863000,10.72286279296875,1.846113324165344,-0.5479435920715332,-1.4567781686782837
2024-12-04 22:07:10.003889000,10.732888916015623,1.6301769018173218,-0.4400913417339325,-1.253506064414978
2024-12-04 22:07:10.013916000,10.742916015625,1.3532267808914185,-0.2833549976348877,-0.9526873230934144
2024-12-04 22:07:10.023942000,10.75294189453125,1.088351845741272,-0.1024637818336486,-0.678891658782959
2024-12-04 22:07:10.033967900,10.7629677734375,0.898212194442749,0.0365460366010665,-0.4903595447540283
2024-12-04 22:07:10.043995000,10.772994873046876,0.8296442031860352,0.106043241918087,-0.4012012183666229
2024-12-04 22:07:10.054020900,10.783020751953124,0.8710582256317139,0.1528499126434326,-0.3977987468242645
2024-12-04 22:07:10.064048000,10.793048095703124,0.956453800201416,0.2294019162654876,-0.4528866410255432
2024-12-04 22:07:10.074074000,10.80307421875,1.0135565996170044,0.3149628639221191,-0.5473427772521973
2024-12-04 22:07:10.084100000,10.81310009765625,1.021062970161438,0.3589377701282501,-0.6616824865341187
2024-12-04 22:07:10.094126800,10.823126953125,0.980836808681488,0.3781324923038482,-0.7538249492645264
2024-12-04 22:07:10.104152800,10.83315283203125,0.9159390330314636,0.4097606539726257,-0.7531359195709229
2024-12-04 22:07:10.114179800,10.843179931640623,0.8254456520080566,0.4265601336956024,-0.6518705487251282
2024-12-04 22:07:10.124205800,10.853205810546877,0.7214791178703308,0.4881471991539001,-0.502921998500824
2024-12-04 22:07:10.134232000,10.863232177734377,0.6399821639060974,0.6527070999145508,-0.3717791438102722
2024-12-04 22:07:10.144259000,10.873259033203125,0.5589777231216431,0.8580552339553833,-0.2656272649765014
2024-12-04 22:07:10.154285000,10.88328515625,0.4946964979171753,0.9796455502510072,-0.1982604563236236
2024-12-04 22:07:10.164311800,10.893311767578124,0.4515649974346161,0.9856073260307312,-0.1548695862293243
2024-12-04 22:07:10.174337800,10.903337890625,0.4294000566005707,0.9443304538726808,-0.1341363489627838
2024-12-04 22:07:10.184365000,10.913364990234374,0.425983190536499,0.9057279825210572,-0.1349308639764785
2024-12-04 22:07:10.194391000,10.92339111328125,0.4325018227100372,0.8779637217521667,-0.1417634785175323
2024-12-04 22:07:10.204417000,10.9334169921875,0.4412764012813568,0.8660440444946289,-0.1324813961982727
2024-12-04 22:07:10.214444000,10.943444091796875,0.4422796070575714,0.8977779746055603,-0.0989157184958458
2024-12-04 22:07:10.224470000,10.953469970703123,0.4298826456069946,0.961004078388214,-0.0836980417370796
2024-12-04 22:07:10.234496000,10.96349609375,0.409083604812622,1.0676391124725342,-0.0697089880704879
2024-12-04 22:07:10.244523000,10.97352294921875,0.3783244490623474,1.2086572647094729,-0.0509987398982048
2024-12-04 22:07:10.254549000,10.983549072265625,0.3412050306797027,1.372596025466919,-0.0494722165167331
2024-12-04 22:07:10.264576000,10.993575927734376,0.3090531229972839,1.5595992803573608,-0.0953147411346435
2024-12-04 22:07:10.274602000,11.00360205078125,0.279534637928009,1.7763994932174685,-0.1957774460315704
2024-12-04 22:07:10.284628000,11.0136279296875,0.2397620975971222,1.9618529081344604,-0.3304016292095184
2024-12-04 22:07:10.294654700,11.02365478515625,0.1809118241071701,2.030866861343384,-0.4494822025299072
2024-12-04 22:07:10.304680700,11.0336806640625,0.1248426288366317,1.9627996683120728,-0.5139861106872559
2024-12-04 22:07:10.314708000,11.0437080078125,0.0869756713509559,1.762065052986145,-0.5327928066253662
2024-12-04 22:07:10.324734000,11.05373388671875,0.0869898423552513,1.441375970840454,-0.5189612507820129
2024-12-04 22:07:10.334760000,11.063760009765623,0.1205720379948616,1.0533974170684814,-0.489044576883316
2024-12-04 22:07:10.344787000,11.073786865234377,0.1807476431131363,0.6417399644851685,-0.4594599902629852
2024-12-04 22:07:10.354813000,11.08381298828125,0.2548998892307281,0.2684909999370575,-0.4320246577262878
2024-12-04 22:07:10.364840000,11.09383984375,0.316629409790039,-0.0324716456234455,-0.4147226810455322
2024-12-04 22:07:10.374866000,11.103865966796874,0.3537320494651794,-0.232126697897911,-0.4196268916130066
2024-12-04 22:07:10.384892000,11.113891845703124,0.3820872008800506,-0.3092108070850372,-0.4726845324039459
2024-12-04 22:07:10.394919000,11.1239189453125,0.4094290733337402,-0.3010793626308441,-0.5442604422569275
2024-12-04 22:07:10.404945000,11.13394482421875,0.4328295886516571,-0.3215626776218414,-0.5968776345252991
2024-12-04 22:07:10.414972000,11.143971923828126,0.4600199460983276,-0.3826369345188141,-0.6149418354034424
2024-12-04 22:07:10.424998100,11.153998046875,0.4701931476593017,-0.4537864923477173,-0.5963634252548218
2024-12-04 22:07:10.435024100,11.164024169921875,0.4787746369838714,-0.5269413590431213,-0.5331985950469971
2024-12-04 22:07:10.445051000,11.17405078125,0.4704371392726898,-0.5948817729949951,-0.4469111263751983
2024-12-04 22:07:10.455076900,11.184076904296877,0.4211960732936859,-0.616714358329773,-0.393211156129837
2024-12-04 22:07:10.465104000,11.194103759765625,0.3513115048408508,-0.6036856174468994,-0.40199676156044
2024-12-04 22:07:10.475129900,11.2041298828125,0.2718190848827362,-0.5444929003715515,-0.488703966140747
2024-12-04 22:07:10.485156000,11.214156005859374,0.1918327361345291,-0.4108431041240692,-0.6375406980514526
2024-12-04 22:07:10.495183000,11.22418310546875,0.1274676024913787,-0.2204622328281402,-0.820797324180603
2024-12-04 22:07:10.505209000,11.234208984375,0.0557506866753101,-0.006435596384108,-0.98758065700531
2024-12-04 22:07:10.515235800,11.24423583984375,-0.0403167232871055,0.1941014975309372,-1.0619800090789795
2024-12-04 22:07:10.525261800,11.25426171875,-0.1375904530286789,0.3253240287303924,-1.0255210399627686
2024-12-04 22:07:10.535287800,11.264287841796875,-0.1981656551361084,0.3234137296676636,-0.8745411038398743
2024-12-04 22:07:10.545315000,11.274315185546875,-0.2365961223840713,0.1822052299976349,-0.6274181008338928
2024-12-04 22:07:10.555341000,11.284341064453123,-0.2641316056251526,-0.0554584562778472,-0.345877468585968
2024-12-04 22:07:10.565368000,11.2943681640625,-0.299606591463089,-0.2604154646396637,-0.080412819981575
2024-12-04 22:07:10.575393800,11.304393798828125,-0.3185589909553528,-0.3224724233150482,0.1111531481146812
2024-12-04 22:07:10.585419800,11.314419677734374,-0.2801690697669983,-0.2640056014060974,0.2595638334751129
2024-12-04 22:07:10.595446800,11.32444677734375,-0.2195387482643127,-0.1501956731081009,0.388111412525177
2024-12-04 22:07:10.605473000,11.33447314453125,-0.1591003835201263,0.0345763340592384,0.4712506532669067
2024-12-04 22:07:10.615500000,11.3445,-0.0878778770565986,0.2539219856262207,0.504780650138855
2024-12-04 22:07:10.625526000,11.354526123046876,0.0088600143790245,0.4801496565341949,0.4811303317546844
2024-12-04 22:07:10.635552000,11.364552001953124,0.1301723271608352,0.6423742771148682,0.4170043468475342
2024-12-04 22:07:10.645578800,11.374578857421875,0.2731193006038666,0.7219250798225403,0.3333885371685028
2024-12-04 22:07:10.655604700,11.384604736328123,0.3926358222961426,0.7030693888664246,0.2674286961555481
2024-12-04 22:07:10.665632000,11.394632080078123,0.4631416499614715,0.6047284007072449,0.2509829401969909
2024-12-04 22:07:10.675658000,11.404657958984377,0.4954524338245392,0.426443338394165,0.3016082942485809
2024-12-04 22:07:10.685684000,11.41468408203125,0.520907998085022,0.118127554655075,0.3929385840892792
2024-12-04 22:07:10.695711000,11.4247109375,0.5188965201377869,-0.2497671097517013,0.4828181564807892
2024-12-04 22:07:10.705737000,11.434737060546874,0.4687607586383819,-0.6304802894592285,0.5701850056648254
2024-12-04 22:07:10.715764000,11.444763916015624,0.3541018068790436,-0.9756826758384703,0.6347998976707458
2024-12-04 22:07:10.725790000,11.4547900390625,0.1965849697589874,-1.2588927745819092,0.6825646162033081
