time,seconds_elapsed,z,y,x
2024-12-04 21:58:02.280754200,0.054754150390625,0.3238934874534607,0.1777833402156829,-0.1250609904527664
2024-12-04 21:58:02.290829000,0.0648291015625,0.2463886737823486,0.2321567237377166,0.1304113715887069
2024-12-04 21:58:02.300904000,0.074904052734375,0.1929464787244796,0.1438417732715606,0.3506824970245361
2024-12-04 21:58:02.310978000,0.08497802734375,0.1626364886760711,0.104042612016201,0.528222918510437
2024-12-04 21:58:02.321053200,0.09505322265625,0.1967707574367523,0.1851079016923904,0.6696868538856506
2024-12-04 21:58:02.331127000,0.105126953125,0.2376078069210052,0.276119977235794,0.7251372933387756
2024-12-04 21:58:02.341202200,0.1152021484375,0.1877217292785644,0.1940378844738006,0.6127774715423584
2024-12-04 21:58:02.351277000,0.125277099609375,0.2392795383930206,0.1550325900316238,0.4298188388347626
2024-12-04 21:58:02.361351200,0.13535107421875,0.3306166529655456,0.1787288635969162,0.2189867347478866
2024-12-04 21:58:02.371426000,0.145426025390625,0.3925895988941192,0.2203589081764221,-0.0220078490674495
2024-12-04 21:58:02.381501700,0.155501708984375,0.4646060168743133,0.1758966296911239,-0.2972356975078583
2024-12-04 21:58:02.391575800,0.165575927734375,0.5111107230186462,0.1043452844023704,-0.665274441242218
2024-12-04 21:58:02.401650700,0.175650634765625,0.5459685921669006,0.1238380223512649,-1.170516014099121
2024-12-04 21:58:02.411725800,0.185725830078125,0.5766758918762207,0.0414834134280681,-1.505162000656128
2024-12-04 21:58:02.421801000,0.195801025390625,0.5910149216651917,-0.1731148958206176,-1.6378684043884275
2024-12-04 21:58:02.431874800,0.205874755859375,0.5387929677963257,-0.3337894380092621,-1.601496338844299
2024-12-04 21:58:02.441950000,0.215949951171875,0.4097966253757477,-0.473704993724823,-1.469467282295227
2024-12-04 21:58:02.452024600,0.226024658203125,0.2404919266700744,-0.5851944088935852,-1.2436745166778564
2024-12-04 21:58:02.462099000,0.236098876953125,-0.0136572625488042,-0.5652952790260315,-0.9492238759994508
2024-12-04 21:58:02.472173600,0.246173583984375,-0.3735697567462921,-0.5043286085128784,-0.6119635105133057
2024-12-04 21:58:02.482248700,0.256248779296875,-0.8209012150764465,-0.4130522310733795,-0.3423418402671814
2024-12-04 21:58:02.492322600,0.266322509765625,-1.226811408996582,-0.4131721258163452,-0.2477175295352935
2024-12-04 21:58:02.502397700,0.276397705078125,-1.431100368499756,-0.5926209688186646,-0.1899828612804412
2024-12-04 21:58:02.512472800,0.286472900390625,-1.3986634016036987,-0.5743398666381836,-0.0939351692795753
2024-12-04 21:58:02.522546700,0.296546630859375,-1.1332067251205444,-0.6280819177627563,0.1394565552473068
2024-12-04 21:58:02.532621800,0.306621826171875,-0.6961727142333984,-0.596000611782074,0.4730820953845978
2024-12-04 21:58:02.542696700,0.31669677734375,-0.1986484080553054,-0.57074373960495,0.7182835936546326
2024-12-04 21:58:02.552770800,0.326770751953125,0.2577082514762878,-0.6646009683609009,0.8815214037895203
2024-12-04 21:58:02.562845700,0.336845703125,0.4829173982143402,-0.4633365571498871,0.8907710909843445
2024-12-04 21:58:02.572920800,0.3469208984375,0.4905128479003906,0.079631432890892,0.7075072526931763
2024-12-04 21:58:02.582996000,0.356995849609375,0.4932391047477722,0.4380369782447815,0.5129321813583374
2024-12-04 21:58:02.593069800,0.36706982421875,0.4906480610370636,0.6768864393234253,0.3333246111869812
2024-12-04 21:58:02.603145000,0.37714501953125,0.4069561064243316,1.110953450202942,0.0007320046424865
2024-12-04 21:58:02.613219800,0.3872197265625,0.3116083741188049,1.4593567848205566,-0.2858299314975738
2024-12-04 21:58:02.623294000,0.3972939453125,0.238718181848526,1.7340452671051023,-0.469777911901474
2024-12-04 21:58:02.633368800,0.407368896484375,0.2415121793746948,1.7059565782546997,-0.6129258871078491
2024-12-04 21:58:02.643443700,0.417443603515625,0.3181265294551849,1.2957007884979248,-0.6270678043365479
2024-12-04 21:58:02.653518600,0.4275185546875,0.3379968106746673,0.9889657497406006,-0.5294042825698853
2024-12-04 21:58:02.663592700,0.4375927734375,0.1646023988723755,0.9241507649421692,-0.346213698387146
2024-12-04 21:58:02.673667600,0.44766748046875,0.0099109867587685,0.8482785224914551,-0.0483472347259521
2024-12-04 21:58:02.683742700,0.45774267578125,-0.0003429823555052,0.7905438542366028,0.3506422340869903
2024-12-04 21:58:02.693816600,0.467816650390625,0.0899722650647163,0.4788722693920135,0.5900108814239502
2024-12-04 21:58:02.703891700,0.4778916015625,0.1312469989061355,0.1342142075300216,0.686707079410553
2024-12-04 21:58:02.713966800,0.487966796875,0.0393137708306312,-0.0475086793303489,0.7541354298591614
2024-12-04 21:58:02.724041700,0.498041748046875,-0.0883682966232299,-0.1514127105474472,0.7548742294311523
2024-12-04 21:58:02.734115800,0.50811572265625,-0.1164297014474868,-0.1669706553220749,0.6205255389213562
2024-12-04 21:58:02.744190700,0.518190673828125,-0.1700220853090286,-0.0613928288221359,0.4436429142951965
2024-12-04 21:58:02.754265900,0.528265869140625,-0.1527647823095321,0.1552381068468094,0.2376724481582641
2024-12-04 21:58:02.764339700,0.538339599609375,-0.1042891293764114,0.3790986239910126,0.0204466506838798
2024-12-04 21:58:02.774414800,0.548414794921875,-0.0756245180964469,0.6433200836181641,-0.1338457018136978
2024-12-04 21:58:02.784490000,0.558489990234375,-0.0696542412042617,0.8077013492584229,-0.1884215921163559
2024-12-04 21:58:02.794564600,0.568564697265625,-0.0596284195780754,0.8219024538993835,-0.1189631968736648
2024-12-04 21:58:02.804639000,0.578638916015625,-0.0408374220132827,0.6875441074371338,0.0556629449129104
2024-12-04 21:58:02.814713600,0.588713623046875,-0.022029809653759,0.4648230969905853,0.2598883211612701
2024-12-04 21:58:02.824788700,0.598788818359375,0.0229499153792858,0.3104457557201385,0.4531216919422149
2024-12-04 21:58:02.834862600,0.608862548828125,0.0624955855309963,0.1777485609054565,0.5392718315124512
2024-12-04 21:58:02.844937700,0.618937744140625,0.0909575819969177,0.1939115524291992,0.5089706182479858
2024-12-04 21:58:02.855012900,0.629012939453125,0.1653347015380859,0.4193457067012787,0.3861546814441681
2024-12-04 21:58:02.865087700,0.639087646484375,0.2328575551509857,0.2649305760860443,0.0319705121219158
2024-12-04 21:58:02.875161900,0.649161865234375,0.1935574263334274,0.0785102322697639,-0.2156987488269806
2024-12-04 21:58:02.885236700,0.65923681640625,0.1044917255640029,0.1345050483942031,-0.2443674206733703
2024-12-04 21:58:02.895312000,0.669311767578125,0.0380785092711448,0.2461693882942199,-0.222811073064804
2024-12-04 21:58:02.905386800,0.67938671875,-0.0143846981227397,0.3604237735271454,-0.2109730541706085
2024-12-04 21:58:02.915460900,0.6894609375,-0.0451467409729957,0.35692098736763,-0.1597970128059387
2024-12-04 21:58:02.925535700,0.69953564453125,-0.0007585044950246,0.2223253548145294,-0.0421478785574436
2024-12-04 21:58:02.935611000,0.70961083984375,0.0663237571716308,-0.0104940086603164,0.0442461743950843
2024-12-04 21:58:02.945685800,0.719685791015625,0.1092147678136825,-0.2855154573917389,0.0929668396711349
2024-12-04 21:58:02.955759900,0.729759765625,0.1250881850719452,-0.3897556960582733,0.1581103503704071
2024-12-04 21:58:02.965834800,0.739834716796875,0.1378260850906372,-0.3413636684417724,0.1916174441576004
2024-12-04 21:58:02.975909600,0.74990966796875,0.1382223069667816,-0.1628227829933166,0.1721907556056976
2024-12-04 21:58:02.985984800,0.75998486328125,0.0444223061203956,0.1449566036462783,0.2150809615850448
2024-12-04 21:58:02.996058600,0.77005859375,-0.0631512403488159,0.0713386610150337,0.2419543862342834
2024-12-04 21:58:03.006133800,0.7801337890625,-0.166736215353012,-0.1876284480094909,0.1905923932790756
2024-12-04 21:58:03.016209000,0.790208984375,-0.2655918598175049,-0.373335599899292,0.1826029866933822
2024-12-04 21:58:03.026283800,0.80028369140625,-0.386358767747879,-0.4699806571006775,0.2548976838588714
2024-12-04 21:58:03.036358000,0.81035791015625,-0.4954249262809753,-0.5924147367477417,0.3974852561950683
2024-12-04 21:58:03.046432800,0.820432861328125,-0.571954071521759,-0.4280588030815124,0.6322498321533203
2024-12-04 21:58:03.056508000,0.8305078125,-0.6263490915298462,-0.2682403922080993,0.8466468453407288
2024-12-04 21:58:03.066582800,0.840582763671875,-0.6739799976348877,-0.0218505728989839,0.967597484588623
2024-12-04 21:58:03.076657000,0.850656982421875,-0.7337954640388489,0.1763487160205841,0.9603115916252136
2024-12-04 21:58:03.086731800,0.860731689453125,-0.757408618927002,0.3061727583408355,0.8273138999938965
2024-12-04 21:58:03.096806700,0.870806640625,-0.8137158155441284,0.3030573725700378,0.5846174359321594
2024-12-04 21:58:03.106880800,0.880880859375,-0.9529713988304138,0.3373615741729736,0.3716013431549072
2024-12-04 21:58:03.116955600,0.89095556640625,-1.16815447807312,0.3982554972171783,0.2708626389503479
2024-12-04 21:58:03.127030800,0.90103076171875,-1.608384609222412,0.2300076484680175,0.3284750878810882
2024-12-04 21:58:03.137105700,0.911105712890625,-1.8616820573806765,-0.2140282392501831,0.5036541223526001
2024-12-04 21:58:03.147179800,0.9211796875,-1.789738416671753,-0.8462328910827637,0.6737678050994873
2024-12-04 21:58:03.157254700,0.931254638671875,-1.4549829959869385,-1.3718043565750122,0.7385700345039368
2024-12-04 21:58:03.167329800,0.941329833984375,-1.104495882987976,-1.4253700971603394,0.6782912611961365
2024-12-04 21:58:03.177405000,0.951405029296875,-0.7219729423522949,-1.435721516609192,0.6672846078872681
2024-12-04 21:58:03.187479800,0.961479736328125,-0.4975281357765198,-1.488675594329834,0.7422957420349121
2024-12-04 21:58:03.197554000,0.971553955078125,-0.5349516868591309,-1.4892313480377195,0.7642379999160767
2024-12-04 21:58:03.207628800,0.98162890625,-0.6058695316314697,-1.4515300989151,0.6367005705833435
2024-12-04 21:58:03.217704000,0.991703857421875,-0.6116974353790283,-1.4356575012207031,0.3876907229423523
2024-12-04 21:58:03.227778600,1.001778564453125,-0.4780299365520477,-1.408912181854248,0.1006680130958557
2024-12-04 21:58:03.237853000,1.01185302734375,-0.2381214499473571,-1.6044303178787231,-0.1439706087112426
2024-12-04 21:58:03.247927600,1.021927490234375,0.0939733982086181,-2.0543811321258545,-0.1845057904720306
2024-12-04 21:58:03.258002700,1.032002685546875,0.5494731068611145,-2.386503934860229,-0.0115557722747325
2024-12-04 21:58:03.268077800,1.042077880859375,1.0197745561599731,-2.367226839065552,0.3518671989440918
2024-12-04 21:58:03.278151700,1.052151611328125,1.2940729856491089,-2.058935165405273,0.798301100730896
2024-12-04 21:58:03.288226800,1.062226806640625,1.396509885787964,-1.4668463468551636,1.1393327713012695
2024-12-04 21:58:03.298301700,1.0723017578125,1.4615027904510498,-0.8723397850990295,1.3895211219787598
2024-12-04 21:58:03.308376800,1.082376953125,1.41238272190094,-0.9832452535629272,1.5406904220581057
2024-12-04 21:58:03.318450700,1.09245068359375,1.1987591981887815,-1.682328701019287,1.607028603553772
2024-12-04 21:58:03.328525800,1.10252587890625,0.6797351837158203,-2.258840084075928,1.774639129638672
2024-12-04 21:58:03.338601000,1.11260107421875,-0.0775846317410469,-2.506575107574463,2.015939235687256
2024-12-04 21:58:03.348675800,1.12267578125,-0.7002156972885132,-2.6083617210388184,2.2121920585632324
2024-12-04 21:58:03.358750000,1.13275,-1.088294267654419,-2.7941575050354004,2.393221139907837
2024-12-04 21:58:03.368824800,1.142824951171875,-1.2978155612945557,-2.979032516479492,2.6598153114318848
2024-12-04 21:58:03.378899700,1.152899658203125,-1.342885971069336,-3.0036118030548096,3.126485824584961
2024-12-04 21:58:03.388974600,1.162974609375,-1.365666389465332,-2.1445343494415283,3.460660934448242
2024-12-04 21:58:03.399048700,1.173048583984375,-1.1661416292190552,-1.245708703994751,3.208665132522583
2024-12-04 21:58:03.409123600,1.18312353515625,-0.8723382949829102,-0.5476015210151672,2.3144938945770264
2024-12-04 21:58:03.419198700,1.19319873046875,-0.6605796217918396,0.0742591172456741,1.3174349069595337
2024-12-04 21:58:03.429273900,1.20327392578125,-0.3442184925079345,0.3704058229923248,0.5751200318336487
2024-12-04 21:58:03.439347700,1.21334765625,0.1945632249116897,0.3579495251178741,0.2474973499774933
2024-12-04 21:58:03.449422800,1.2234228515625,0.6237175464630127,0.5453401803970337,0.2905036807060241
2024-12-04 21:58:03.459497700,1.233497802734375,0.8166125416755676,0.5105528831481934,0.6550178527832031
2024-12-04 21:58:03.469572900,1.24357275390625,0.6881096959114075,0.4806580543518066,1.226171374320984
2024-12-04 21:58:03.479648000,1.25364794921875,0.3679075539112091,0.7409881353378296,1.4951294660568235
2024-12-04 21:58:03.489721900,1.263721923828125,-0.060356181114912,1.2969789505004885,1.3026736974716189
2024-12-04 21:58:03.499797000,1.273796875,-0.4127603769302368,1.9654284715652464,0.6441105008125305
2024-12-04 21:58:03.509871600,1.28387158203125,-0.4627444446086883,2.224123954772949,-0.2771485149860382
2024-12-04 21:58:03.519946800,1.29394677734375,-0.4013584554195404,1.8110142946243288,-1.2550519704818726
2024-12-04 21:58:03.530020600,1.3040205078125,-0.2697618305683136,1.0235732793807983,-2.013328790664673
2024-12-04 21:58:03.540095700,1.314095703125,-0.0084845656529068,0.1684382259845733,-2.2168545722961426
2024-12-04 21:58:03.550170600,1.324170654296875,0.1709595024585724,-0.6829919815063477,-1.7108774185180664
2024-12-04 21:58:03.560245800,1.334245849609375,0.3595327138900757,-1.2965620756149292,-0.5727699398994446
2024-12-04 21:58:03.570320000,1.34431982421875,0.5425124168395996,-1.5941990613937378,0.7851654887199402
2024-12-04 21:58:03.580394800,1.354394775390625,0.8858445286750793,-1.6486340761184692,1.7874540090560913
2024-12-04 21:58:03.590470000,1.364469970703125,1.3049283027648926,-1.4637869596481323,2.080606698989868
2024-12-04 21:58:03.600544800,1.374544677734375,1.642166018486023,-1.2095824480056765,1.821027040481568
2024-12-04 21:58:03.610619000,1.384618896484375,1.965670585632324,-0.8241169452667236,1.365959405899048
2024-12-04 21:58:03.620693800,1.39469384765625,2.303077220916748,-0.568252444267273,0.9851444959640504
2024-12-04 21:58:03.630769000,1.404768798828125,2.4746575355529785,-0.4585344791412353,0.7172720432281494
2024-12-04 21:58:03.640843800,1.41484375,2.6321494579315186,-0.5464465022087097,0.6721366047859192
2024-12-04 21:58:03.650918000,1.42491796875,2.9545328617095947,-0.8773064613342285,0.840406596660614
2024-12-04 21:58:03.660992800,1.43499267578125,3.4454896450042725,-1.1265393495559692,1.0945844650268557
2024-12-04 21:58:03.671067600,1.445067626953125,3.9315476417541504,-1.3955273628234863,1.232873797416687
2024-12-04 21:58:03.681142800,1.455142822265625,4.355590343475342,-1.436169147491455,1.1591006517410278
2024-12-04 21:58:03.691217700,1.4652177734375,4.64831018447876,-1.1541898250579834,0.6868355870246887
2024-12-04 21:58:03.701291800,1.475291748046875,4.7348809242248535,-0.9298285245895386,-0.1559813469648361
2024-12-04 21:58:03.711367000,1.485366943359375,4.737637996673584,-0.78836989402771,-1.2737367153167725
2024-12-04 21:58:03.721441800,1.49544189453125,4.721590995788574,-0.6736797094345093,-2.6142737865448
2024-12-04 21:58:03.731517000,1.505516845703125,4.678859233856201,-0.6694077253341675,-4.150924682617188
2024-12-04 21:58:03.741590800,1.5155908203125,4.654467582702637,-0.5393203496932983,-5.625498294830322
2024-12-04 21:58:03.751666000,1.525666015625,4.601207733154297,-0.3868650197982788,-6.886561393737793
2024-12-04 21:58:03.761740800,1.53574072265625,4.4262375831604,-0.6570242643356323,-7.831810474395752
2024-12-04 21:58:03.771815700,1.545815673828125,4.173174858093262,-1.2214874029159546,-8.36418342590332
2024-12-04 21:58:03.781889800,1.555889892578125,3.856208324432373,-1.7068631649017334,-8.470005989074707
2024-12-04 21:58:03.791964700,1.565964599609375,3.5382487773895264,-2.101874828338623,-8.200640678405762
2024-12-04 21:58:03.802039800,1.576039794921875,3.3551650047302246,-2.5996410846710205,-7.702151775360107
2024-12-04 21:58:03.812114700,1.58611474609375,3.2888548374176025,-3.140685558319092,-7.160323143005371
2024-12-04 21:58:03.822189800,1.59618994140625,3.3244411945343018,-3.4472856521606445,-6.216194152832031
2024-12-04 21:58:03.832263700,1.606263671875,3.607486724853516,-3.903796672821045,-4.870491981506348
2024-12-04 21:58:03.842338800,1.6163388671875,3.866353034973145,-4.4793877601623535,-3.3035006523132324
2024-12-04 21:58:03.852414000,1.6264140625,4.153542518615723,-4.95560884475708,-1.4831223487854004
2024-12-04 21:58:03.862488800,1.63648876953125,4.407485008239746,-5.035017013549805,0.2650867700576782
2024-12-04 21:58:03.872563000,1.64656298828125,4.187349319458008,-4.597824096679688,1.7017652988433838
2024-12-04 21:58:03.882637800,1.656637939453125,3.535717487335205,-3.778128862380981,2.6908955574035645
2024-12-04 21:58:03.892712700,1.666712646484375,2.822511672973633,-2.644914627075196,3.277086973190308
2024-12-04 21:58:03.902787600,1.67678759765625,2.2911722660064697,-1.1756693124771118,3.771675348281861
2024-12-04 21:58:03.912862000,1.686862060546875,1.880248427391052,0.0059600006788969,4.050906658172607
2024-12-04 21:58:03.922936600,1.6969365234375,1.0628023147583008,0.5877308249473572,3.898982286453247
2024-12-04 21:58:03.933011700,1.70701171875,-0.1452394723892212,0.7615902423858643,2.8759515285491943
2024-12-04 21:58:03.943086800,1.7170869140625,-1.3029755353927612,0.5994762778282166,1.2533607482910156
2024-12-04 21:58:03.953160700,1.72716064453125,-2.3723087310791016,0.1565108299255371,-1.353390336036682
2024-12-04 21:58:03.963235800,1.73723583984375,-2.9587621688842773,-0.487749308347702,-4.374295234680176
2024-12-04 21:58:03.973310700,1.747310791015625,-3.1403005123138428,-1.8999559879302976,-6.061676025390625
2024-12-04 21:58:03.983385900,1.7573857421875,-3.066373348236084,-2.5054492950439453,-4.829326152801514
2024-12-04 21:58:03.993461000,1.7674609375,-2.9058520793914795,-1.7736996412277222,-3.155613660812378
2024-12-04 21:58:04.003534800,1.777534912109375,-3.279733657836914,-1.1890236139297483,-1.8467304706573489
2024-12-04 21:58:04.013610000,1.78760986328125,-3.852962255477905,-2.6340367794036865,-1.372157335281372
2024-12-04 21:58:04.023684900,1.797684814453125,-3.6779708862304688,-4.24033784866333,-0.3443629145622253
2024-12-04 21:58:04.033759700,1.807759765625,-3.233534097671509,-4.870601177215576,0.5146428942680359
2024-12-04 21:58:04.043833900,1.817833740234375,-3.28198790550232,-5.049489498138428,1.5043723583221436
2024-12-04 21:58:04.053908700,1.82790869140625,-3.7199087142944336,-5.213308334350586,2.433565855026245
2024-12-04 21:58:04.063983600,1.837983642578125,-4.193129539489746,-5.548717021942139,2.8049137592315674
2024-12-04 21:58:04.074058800,1.848058837890625,-4.835454940795898,-5.548685073852539,2.6267569065093994
2024-12-04 21:58:04.084132600,1.858132568359375,-4.86587381362915,-4.8568115234375,2.6923515796661377
2024-12-04 21:58:04.094207700,1.868207763671875,-4.215014457702637,-4.128713607788086,2.5393638610839844
2024-12-04 21:58:04.104283000,1.878282958984375,-3.539235591888428,-3.284229755401612,2.343121290206909
2024-12-04 21:58:04.114357800,1.888357666015625,-3.076438665390014,-2.8608970642089844,2.4526455402374268
2024-12-04 21:58:04.124432000,1.898431884765625,-2.9749011993408203,-2.738961935043335,2.662281036376953
2024-12-04 21:58:04.134506800,1.9085068359375,-3.153716802597046,-2.890853881835937,2.793601751327514
2024-12-04 21:58:04.144582000,1.918581787109375,-3.2757210731506348,-2.578730821609497,2.8992440700531006
2024-12-04 21:58:04.154656800,1.92865673828125,-2.963351011276245,-2.016890525817871,3.02190375328064
2024-12-04 21:58:04.164731000,1.93873095703125,-2.542253255844116,-1.4681992530822754,2.808659076690674
2024-12-04 21:58:04.174805800,1.9488056640625,-1.6467645168304443,-1.2404515743255615,2.531890630722046
2024-12-04 21:58:04.184880600,1.958880615234375,-0.5994666814804077,-0.8525500893592834,2.386728525161743
2024-12-04 21:58:04.194955800,1.968955810546875,0.3240991830825805,-0.1349192410707473,2.507197856903076
2024-12-04 21:58:04.205030700,1.97903076171875,1.0858891010284424,-0.2471368163824081,2.2374961376190186
2024-12-04 21:58:04.215104800,1.989104736328125,1.823468565940857,-0.2990442514419555,1.9470394849777224
2024-12-04 21:58:04.225179600,1.9991796875,2.496779441833496,-0.6152036786079407,1.6462607383728027
2024-12-04 21:58:04.235254800,2.0092548828125,2.832054853439331,-0.7848209142684937,1.1478996276855469
2024-12-04 21:58:04.245330000,2.019329833984375,3.224823236465454,-0.7553125023841858,0.7645018696784973
2024-12-04 21:58:04.255403800,2.02940380859375,3.5222244262695312,-0.9891250133514404,0.305631548166275
2024-12-04 21:58:04.265479000,2.03947900390625,4.709740161895752,-1.373327612876892,-0.0470243319869041
2024-12-04 21:58:04.275553800,2.0495537109375,6.188579559326172,-1.5200358629226685,-0.2457896322011947
2024-12-04 21:58:04.285628700,2.059628662109375,6.788372993469238,-1.379241704940796,-0.4538432955741882
2024-12-04 21:58:04.295702800,2.069702880859375,6.235095024108887,-0.8493998646736145,-0.6752379536628723
2024-12-04 21:58:04.305777700,2.079777587890625,5.193944931030273,-0.1472061276435852,-0.4355329573154449
2024-12-04 21:58:04.315852800,2.089852783203125,4.020252227783203,-0.1939635127782821,-0.0525866523385047
2024-12-04 21:58:04.325927700,2.099927734375,3.304283380508423,-0.701960563659668,-0.0242335740476846
2024-12-04 21:58:04.336001800,2.110001708984375,3.002869129180908,-1.0375438928604126,-0.0197746437042951
2024-12-04 21:58:04.346076700,2.12007666015625,2.7602572441101074,-0.7384716868400574,-0.0784493088722229
2024-12-04 21:58:04.356151800,2.13015185546875,2.640865087509156,0.3538906574249267,-0.5284918546676636
2024-12-04 21:58:04.366226700,2.140226806640625,2.780229091644287,2.225514411926269,-1.3580992221832275
2024-12-04 21:58:04.376300300,2.15030029296875,3.49405288696289,4.355542182922363,-2.211981296539306
2024-12-04 21:58:04.386375400,2.16037548828125,4.500215530395508,6.5204362869262695,-2.718892812728882
2024-12-04 21:58:04.396450600,2.170450439453125,5.177573204040527,8.153379440307617,-2.7102813720703125
2024-12-04 21:58:04.406525400,2.180525390625,5.291606426239014,9.181407928466797,-2.1152963638305664
2024-12-04 21:58:04.416599600,2.190599609375,4.823879718780518,9.58393383026123,-0.9954071044921876
2024-12-04 21:58:04.426674400,2.20067431640625,3.777466297149658,8.364176750183105,0.4411721229553222
2024-12-04 21:58:04.436749600,2.21074951171875,3.5613884925842285,9.697383880615234,1.8770697116851809
2024-12-04 21:58:04.446824400,2.220824462890625,3.654465436935425,10.383392333984377,2.0580034255981445
2024-12-04 21:58:04.456898600,2.230898681640625,2.795694351196289,10.330161094665527,2.3459131717681885
2024-12-04 21:58:04.466973400,2.240973388671875,1.885404109954834,10.375520706176758,2.137634038925171
2024-12-04 21:58:04.477048300,2.25104833984375,0.448704719543457,3.712021589279175,1.572731852531433
2024-12-04 21:58:04.487123500,2.26112353515625,-1.3325289487838743,2.030081033706665,1.1362907886505127
2024-12-04 21:58:04.497197300,2.271197265625,-2.9399638175964355,3.712552309036255,1.221523404121399
2024-12-04 21:58:04.507272400,2.2812724609375,-4.400376796722412,6.697318077087402,1.537893295288086
2024-12-04 21:58:04.517347300,2.291347412109375,-4.640155792236328,7.029360294342041,1.1730644702911377
2024-12-04 21:58:04.527422500,2.30142236328125,-4.741810321807861,7.031869411468506,1.0742195844650269
2024-12-04 21:58:04.537496300,2.311496337890625,-4.831644535064697,6.711102485656738,1.31781804561615
2024-12-04 21:58:04.547571500,2.321571533203125,-4.658571243286133,5.21550989151001,1.6041076183319092
2024-12-04 21:58:04.557646600,2.331646484375,-3.370448350906372,1.8823808431625368,1.5900967121124268
2024-12-04 21:58:04.567721500,2.341721435546875,-1.0072897672653198,-1.6842730045318604,1.3939263820648191
2024-12-04 21:58:04.577795600,2.351795654296875,1.0550435781478882,-4.136584281921387,1.896322965621948
2024-12-04 21:58:04.587870500,2.361870361328125,2.6339094638824463,-6.382906913757324,2.1900203227996826
2024-12-04 21:58:04.597945300,2.3719453125,3.3150429725646973,-8.900856971740723,2.308551788330078
2024-12-04 21:58:04.608020500,2.3820205078125,3.4166407585144043,-10.780278205871582,2.658926010131836
2024-12-04 21:58:04.618094300,2.39209423828125,3.992934465408325,-12.255188941955566,3.32171368598938
2024-12-04 21:58:04.628169500,2.40216943359375,4.932368755340576,-13.96718692779541,4.441186428070068
2024-12-04 21:58:04.638244400,2.412244384765625,5.358727931976318,-15.025066375732422,5.710963726043701
2024-12-04 21:58:04.648319500,2.422319580078125,5.045342445373535,-15.029145240783691,6.508481025695801
2024-12-04 21:58:04.658393300,2.432393310546875,4.653326988220215,-14.071340560913086,6.168898582458496
2024-12-04 21:58:04.668468500,2.442468505859375,4.137043952941895,-13.5852689743042,3.655243396759033
2024-12-04 21:58:04.678543400,2.45254345703125,4.337608814239502,-14.12016773223877,1.9745800495147705
2024-12-04 21:58:04.688618500,2.462618408203125,4.570634841918945,-14.03555679321289,0.8129178285598755
2024-12-04 21:58:04.698692600,2.472692626953125,4.462640762329102,-12.81636905670166,-0.646718442440033
2024-12-04 21:58:04.708767500,2.482767578125,4.185073375701904,-10.806448936462402,-1.504045486450195
2024-12-04 21:58:04.718842600,2.492842529296875,3.382198095321656,-8.156728744506836,-1.0791804790496826
2024-12-04 21:58:04.728917200,2.502917236328125,2.704227924346924,-7.067882061004639,0.3395918309688568
2024-12-04 21:58:04.738991600,2.51299169921875,2.225154161453247,-4.729885578155518,1.681615948677063
2024-12-04 21:58:04.749066200,2.523066162109375,2.050973415374756,-2.618333101272583,2.181440830230713
2024-12-04 21:58:04.759141400,2.533141357421875,1.939731478691101,-1.714103937149048,1.5703314542770386
2024-12-04 21:58:04.769216500,2.543216552734375,1.7205098867416382,-1.173043966293335,0.3563227951526642
2024-12-04 21:58:04.779290400,2.553290283203125,1.4772855043411257,-0.6637959480285645,-0.7394319176673889
2024-12-04 21:58:04.789365500,2.563365478515625,1.2653779983520508,-0.0897555276751518,-1.4951834678649902
2024-12-04 21:58:04.799440400,2.5734404296875,1.2967809438705444,0.3539103269577026,-1.7378318309783936
2024-12-04 21:58:04.809514500,2.583514404296875,1.4831889867782593,0.6098405718803406,-1.6986467838287354
2024-12-04 21:58:04.819589400,2.59358935546875,1.636077046394348,0.789574384689331,-1.5768800973892212
2024-12-04 21:58:04.829664500,2.60366455078125,1.4357366561889648,1.2274538278579712,-0.975432813167572
2024-12-04 21:58:04.839739600,2.61373974609375,1.0770328044891355,1.6287429332733154,-0.6988211870193481
2024-12-04 21:58:04.849813500,2.6238134765625,0.6052915453910828,1.9960492849349976,-0.3077256381511688
2024-12-04 21:58:04.859888600,2.633888671875,0.201585903763771,1.8053933382034304,0.0807792022824287
2024-12-04 21:58:04.869963500,2.643963623046875,-0.0801374241709709,1.72802734375,0.4566162228584289
2024-12-04 21:58:04.880038400,2.654038330078125,-0.1238446906208992,1.9920451641082764,0.5859875082969666
2024-12-04 21:58:04.890112500,2.664112548828125,-0.1726175248622894,2.2225418090820312,0.422012448310852
2024-12-04 21:58:04.900187400,2.6741875,-0.3712297081947326,2.1215107440948486,0.5407305359840393
2024-12-04 21:58:04.910262300,2.68426220703125,-0.9369580149650574,1.881273865699768,1.3385334014892578
2024-12-04 21:58:04.920337400,2.69433740234375,-1.6265469789505005,1.7511249780654907,2.6151418685913086
2024-12-04 21:58:04.930411300,2.704411376953125,-1.7091964483261108,-2.481129169464112,0.9280697107315063
2024-12-04 21:58:04.940486400,2.714486328125,-1.0337673425674438,-4.421504974365234,-0.0102453157305717
2024-12-04 21:58:04.950561500,2.7245615234375,-0.3859022557735443,-3.039347887039185,0.4295510947704315
2024-12-04 21:58:04.960635400,2.734635498046875,0.5106719136238098,-1.706131935119629,-0.6641899347305298
2024-12-04 21:58:04.970710500,2.74471044921875,0.8719000816345215,-0.9390958547592164,-1.2993015050888062
2024-12-04 21:58:04.980785400,2.754785400390625,0.8263776302337646,-0.5518312454223633,-1.336231350898743
2024-12-04 21:58:04.990860500,2.764860595703125,0.7019698619842529,-0.3147507905960083,-1.3433881998062134
2024-12-04 21:58:05.000934400,2.774934326171875,0.5999055504798889,0.0164803750813007,-1.3427327871322632
2024-12-04 21:58:05.011009500,2.785009521484375,0.4060626029968261,0.4428398609161377,-1.2844359874725342
2024-12-04 21:58:05.021084700,2.795084716796875,0.5863167643547058,0.7266990542411804,-1.0529247522354126
2024-12-04 21:58:05.031158500,2.805158447265625,0.955048143863678,0.8506814241409302,-0.923675775527954
2024-12-04 21:58:05.041233700,2.815233642578125,1.0659059286117554,0.6999097466468811,-0.9943813681602478
2024-12-04 21:58:05.051308300,2.825308349609375,0.8200984597206116,0.8690301775932312,-1.1299076080322266
2024-12-04 21:58:05.061383400,2.835383544921875,0.5620445013046265,1.1159342527389526,-1.2385307550430298
2024-12-04 21:58:05.071457300,2.845457275390625,0.1894181072711944,1.193760633468628,-1.3269461393356323
2024-12-04 21:58:05.081532400,2.855532470703125,-0.1946986615657806,1.0848219394683838,-1.3338961601257324
2024-12-04 21:58:05.091607300,2.865607177734375,-0.4742187261581421,1.2328648567199707,-1.3640801906585691
2024-12-04 21:58:05.101682400,2.875682373046875,-0.5548821687698364,1.3781694173812866,-1.386811375617981
2024-12-04 21:58:05.111756300,2.88575634765625,-0.2336602807044983,1.0658084154129028,-1.3503440618515017
2024-12-04 21:58:05.121831400,2.89583154296875,-0.122714065015316,0.7298063635826111,-1.2799880504608154
2024-12-04 21:58:05.131906600,2.905906494140625,-0.3735462427139282,0.3725542724132538,-1.0390236377716064
2024-12-04 21:58:05.141980400,2.91598046875,-0.6572905778884888,-0.1409351378679275,-0.7275654077529907
2024-12-04 21:58:05.152055600,2.9260556640625,-0.915783166885376,-0.6607980132102966,-0.541174054145813
2024-12-04 21:58:05.162130400,2.93613037109375,-1.2527697086334229,-1.1650654077529907,-0.4782419502735138
2024-12-04 21:58:05.172205600,2.94620556640625,-1.6762202978134155,-1.5300512313842771,-0.5937709808349609
2024-12-04 21:58:05.182279400,2.956279541015625,-1.9369431734085083,-1.2241177558898926,-0.700697660446167
2024-12-04 21:58:05.192354600,2.9663544921875,-1.97496235370636,-0.2290760427713394,-0.6181347966194153
2024-12-04 21:58:05.202429400,2.976429443359375,-2.1128809452056885,1.054627776145935,-0.5288144946098328
2024-12-04 21:58:05.212503600,2.986503662109375,-2.295337915420532,1.6036748886108398,-0.6782175898551941
2024-12-04 21:58:05.222578400,2.996578369140625,-2.0586955547332764,1.3088996410369873,-0.7149034142494202
2024-12-04 21:58:05.232653300,3.0066533203125,-2.0502829551696777,1.4055373668670654,-1.1304658651351929
2024-12-04 21:58:05.242728400,3.016728515625,-2.2326931953430176,1.3551698923110962,-1.5149853229522705
2024-12-04 21:58:05.252802300,3.02680224609375,-2.183490037918091,1.4138058423995972,-1.242722749710083
2024-12-04 21:58:05.262877400,3.03687744140625,-2.105916976928711,1.2086390256881714,-0.5842549800872803
2024-12-04 21:58:05.272952600,3.04695263671875,-2.189690113067627,1.1140642166137695,-0.243377074599266
2024-12-04 21:58:05.283026400,3.0570263671875,-2.3143293857574463,1.8887802362442017,0.1350740939378738
2024-12-04 21:58:05.293101600,3.0671015625,-2.149339437484741,3.033475160598755,0.8519862294197083
2024-12-04 21:58:05.303176400,3.077176513671875,-1.7477973699569702,3.397822618484497,0.6249751448631287
2024-12-04 21:58:05.313251600,3.08725146484375,-1.1977763175964355,3.41036343574524,-0.2692943215370178
2024-12-04 21:58:05.323325400,3.097325439453125,-1.1193711757659912,3.784874677658081,-0.9413893818855286
2024-12-04 21:58:05.333400600,3.107400634765625,-1.294336438179016,4.298582553863525,-0.9731510281562804
2024-12-04 21:58:05.343475500,3.117475341796875,-1.3445415496826172,4.10983419418335,-0.5891075134277344
2024-12-04 21:58:05.353549600,3.127549560546875,-1.3488725423812866,3.728110074996948,0.0325595252215862
2024-12-04 21:58:05.363624400,3.13762451171875,-1.418823480606079,3.369356632232666,0.0622561685740947
2024-12-04 21:58:05.373699300,3.14769921875,-1.3843669891357422,3.4596219062805176,-0.3481929898262024
2024-12-04 21:58:05.383774000,3.15777392578125,-1.022453784942627,4.612832546234131,-0.6225667595863342
2024-12-04 21:58:05.393849000,3.16784912109375,-0.4012258648872375,5.77363920211792,-0.5907434821128845
2024-12-04 21:58:05.403924000,3.177924072265625,0.2207551300525665,6.790445804595947,-0.40761598944664
2024-12-04 21:58:05.413999000,3.1879990234375,0.6599225997924805,7.616178035736084,-0.0994556099176406
2024-12-04 21:58:05.424073000,3.198072998046875,1.1431238651275637,8.290397644042969,0.3534791171550751
2024-12-04 21:58:05.434148000,3.208148193359375,1.806017279624939,8.855015754699707,1.038426637649536
2024-12-04 21:58:05.444223000,3.218222900390625,2.2441320419311523,9.548751831054688,1.7539740800857544
2024-12-04 21:58:05.454297000,3.228297119140625,2.357248306274414,10.347357749938965,2.733981132507324
2024-12-04 21:58:05.464372000,3.2383720703125,2.1752870082855225,11.215978622436523,3.4391214847564697
2024-12-04 21:58:05.474447000,3.248447021484375,1.1320652961730957,11.666925430297852,2.493007183074951
2024-12-04 21:58:05.484522000,3.25852197265625,-0.8817686438560486,11.390028953552246,0.0150819662958383
2024-12-04 21:58:05.494596000,3.26859619140625,-2.7959635257720947,10.344371795654297,-1.4312973022460938
2024-12-04 21:58:05.504671000,3.2786708984375,-3.9111526012420654,8.574735641479492,-2.053787469863892
2024-12-04 21:58:05.514745900,3.288745849609375,-4.867486953735352,7.477743625640869,-2.611935615539551
2024-12-04 21:58:05.524820000,3.298820068359375,-5.368689060211182,6.895005702972412,-3.090568780899048
2024-12-04 21:58:05.534894800,3.308894775390625,-5.427666187286377,6.636480331420898,-3.2171013355255127
2024-12-04 21:58:05.544970000,3.318969970703125,-5.400808334350586,6.616626739501953,-2.891286611557007
2024-12-04 21:58:05.555043800,3.3290439453125,-5.587115287780762,6.5319342613220215,-2.483549356460572
2024-12-04 21:58:05.565119000,3.339118896484375,-5.786017894744873,6.275041103363037,-1.9412050247192385
2024-12-04 21:58:05.575194000,3.349194091796875,-5.882467746734619,6.01400899887085,-1.3679425716400146
2024-12-04 21:58:05.585269000,3.35926904296875,-5.882656574249268,5.876774311065674,-0.8887187838554382
2024-12-04 21:58:05.595343000,3.369343017578125,-5.93149471282959,5.92699146270752,-0.5373362302780151
2024-12-04 21:58:05.605418000,3.37941796875,-5.894620418548584,5.6740803718566895,-0.3469402194023132
2024-12-04 21:58:05.615493000,3.3894931640625,-5.773690700531006,5.054014205932617,-0.19019415974617
2024-12-04 21:58:05.625567000,3.39956689453125,-5.4764485359191895,4.192961692810059,0.0593850426375865
2024-12-04 21:58:05.635642000,3.40964208984375,-4.993370056152344,3.2947781085968018,0.4758025407791137
2024-12-04 21:58:05.645717200,3.41971728515625,-4.464749336242676,2.578709840774536,0.9926315546035768
2024-12-04 21:58:05.655791000,3.429791015625,-4.0113630294799805,2.2460412979125977,1.5636537075042725
2024-12-04 21:58:05.665866200,3.4398662109375,-3.650210857391357,2.319371700286865,2.014024496078491
2024-12-04 21:58:05.675940900,3.44994091796875,-3.2394187450408936,2.5772719383239746,2.05184292793274
2024-12-04 21:58:05.686015200,3.46001513671875,-2.74692440032959,2.705347776412964,1.9199334383010864
2024-12-04 21:58:05.696089900,3.47008984375,-2.1617019176483154,2.764519453048706,1.708446383476257
2024-12-04 21:58:05.706165000,3.4801650390625,-1.5854076147079468,2.8725569248199463,1.5136369466781616
2024-12-04 21:58:05.716240000,3.490239990234375,-1.0129575729370115,3.053303003311157,1.4547514915466309
2024-12-04 21:58:05.726314000,3.50031396484375,-0.5665209293365479,3.284620761871338,1.3805222511291504
2024-12-04 21:58:05.736388900,3.510388916015625,-0.2518810331821441,3.168587446212769,1.2090535163879397
2024-12-04 21:58:05.746464000,3.520464111328125,0.0109015777707099,2.742288589477539,1.0445806980133057
2024-12-04 21:58:05.756537900,3.530537841796875,0.3167400658130646,2.140409469604492,0.9173679947853088
2024-12-04 21:58:05.766613000,3.540613037109375,0.5945138931274414,1.5981627702713013,0.8101866841316223
2024-12-04 21:58:05.776688000,3.550688232421875,0.8205854296684265,1.1957396268844604,0.6387424468994141
2024-12-04 21:58:05.786762000,3.560761962890625,0.947798490524292,1.2859286069869995,0.4067041575908661
2024-12-04 21:58:05.796837000,3.570837158203125,0.9517881870269777,2.0663421154022217,0.3315347731113434
2024-12-04 21:58:05.806912000,3.580912109375,0.856114387512207,1.7051466703414917,0.1307262778282165
2024-12-04 21:58:05.816986000,3.590986083984375,0.6502564549446106,1.46366286277771,0.0404539965093135
2024-12-04 21:58:05.827061000,3.60106103515625,0.3773064315319061,1.174079179763794,0.0505875907838344
2024-12-04 21:58:05.837136100,3.61113623046875,0.0860303342342376,0.7664915919303894,0.1134479641914367
2024-12-04 21:58:05.847211000,3.6212109375,-0.2805058360099792,0.2492615282535553,0.1697160452604293
2024-12-04 21:58:05.857285000,3.63128515625,-0.631117582321167,-0.1786568909883499,0.3006616532802582
2024-12-04 21:58:05.867360000,3.641360107421875,-0.8730082511901855,-0.3896354436874389,0.4465804994106293
2024-12-04 21:58:05.877435000,3.651434814453125,-0.9382609724998474,-0.3948881030082702,0.5518031120300293
2024-12-04 21:58:05.887509000,3.661509033203125,-0.5473278164863586,-0.3309258818626404,0.6078594923019409
2024-12-04 21:58:05.897583900,3.671583984375,0.2351019233465194,-0.4463890492916107,0.63814777135849
2024-12-04 21:58:05.907659000,3.681658935546875,1.0625503063201904,-0.6185413599014282,0.5860041379928589
2024-12-04 21:58:05.917732900,3.69173291015625,1.1429078578948977,-0.5553673505783081,0.3422194421291351
2024-12-04 21:58:05.927808000,3.70180810546875,0.897576093673706,-0.1861365735530853,-0.0096919871866703
2024-12-04 21:58:05.937883100,3.711883056640625,0.818952739238739,0.0095098260790109,-0.2265570759773254
2024-12-04 21:58:05.947957000,3.72195703125,0.8975474238395691,0.1493604034185409,-0.3312480747699737
2024-12-04 21:58:05.958032100,3.7320322265625,0.9369439482688904,0.2265306264162063,-0.3955096006393432
2024-12-04 21:58:05.968107000,3.74210693359375,0.8439322113990784,-0.049362476915121,-0.3686268329620361
2024-12-04 21:58:05.978181000,3.75218115234375,0.6436601877212524,-0.5763269066810608,-0.2690030634403229
2024-12-04 21:58:05.988256000,3.762256103515625,0.3040461540222168,-1.109402775764465,-0.136847972869873
2024-12-04 21:58:05.998331100,3.7723310546875,0.0042887930758297,-1.5280336141586304,-0.1172795444726944
2024-12-04 21:58:06.008405000,3.782405029296875,-0.2846484780311584,-1.67353093624115,-0.2834735810756683
2024-12-04 21:58:06.018480000,3.792480224609375,-0.4914641678333282,-1.42617928981781,-0.5601216554641724
2024-12-04 21:58:06.028555000,3.802554931640625,-0.528128981590271,-0.8436734080314636,-0.8878329396247864
2024-12-04 21:58:06.038629000,3.812629150390625,-0.477205753326416,-0.2587200403213501,-1.119023680686951
2024-12-04 21:58:06.048704000,3.8227041015625,-0.5400062799453735,0.0299202762544155,-1.174221754074097
2024-12-04 21:58:06.058779000,3.83277880859375,-0.784184992313385,-0.0353292822837829,-1.037433385848999
2024-12-04 21:58:06.068854000,3.84285400390625,-1.0567320585250854,-0.2899248301982879,-0.7098299860954285
2024-12-04 21:58:06.078928000,3.852927978515625,-1.1583569049835205,-0.4959142506122589,-0.3028656244277954
2024-12-04 21:58:06.089003000,3.8630029296875,-1.0579111576080322,-0.511854350566864,0.0029478282667696
2024-12-04 21:58:06.099078000,3.873077880859375,-0.8041036128997803,-0.3309977054595947,0.1265924572944641
2024-12-04 21:58:06.109152000,3.883152099609375,-0.5669006109237671,-0.0391029864549636,0.0603077076375484
2024-12-04 21:58:06.119227000,3.893226806640625,-0.3490375578403473,0.3489791750907898,-0.0440213344991207
2024-12-04 21:58:06.129302000,3.903302001953125,-0.0175549536943435,0.8241821527481079,-0.2463659346103668
2024-12-04 21:58:06.139375900,3.9133759765625,0.2522250115871429,1.2172201871871948,-0.5767611265182495
2024-12-04 21:58:06.149451000,3.923450927734375,0.3080722987651825,1.3416622877120972,-0.858782172203064
2024-12-04 21:58:06.159526100,3.933526123046875,0.2452645599842071,1.283012866973877,-1.0011799335479736
2024-12-04 21:58:06.169600000,3.94360009765625,0.1321419924497604,1.1216623783111572,-1.0207575559616089
2024-12-04 21:58:06.179675100,3.953675048828125,-0.0157630555331707,0.800008237361908,-0.9126928448677064
2024-12-04 21:58:06.189750000,3.96375,-0.2091902941465377,0.4830715656280517,-0.6678577661514282
2024-12-04 21:58:06.199824100,3.97382421875,-0.3861264586448669,0.2524441480636596,-0.3472076654434204
2024-12-04 21:58:06.209899000,3.98389892578125,-0.4685347974300384,0.075912244617939,-0.0718839466571807
2024-12-04 21:58:06.219974100,3.99397412109375,-0.4643984735012054,-0.0055726394057273,0.0642125234007835
2024-12-04 21:58:06.230048000,4.004048095703125,-0.4092231094837188,0.0079903081059455,0.0544608309864997
2024-12-04 21:58:06.240123100,4.014123046875,-0.3437484502792358,0.0802019163966178,-0.0503399968147277
2024-12-04 21:58:06.250198000,4.024197998046875,-0.3140643239021301,0.1921729296445846,-0.1650380790233612
2024-12-04 21:58:06.260272000,4.034272216796875,-0.3022983968257904,0.270205557346344,-0.2447966039180755
2024-12-04 21:58:06.270347000,4.044346923828125,-0.3225331008434295,0.328556478023529,-0.2920139133930206
2024-12-04 21:58:06.280422000,4.054421875,-0.3666279911994934,0.4068656265735626,-0.3164676427841186
2024-12-04 21:58:06.290496000,4.06449609375,-0.412420243024826,0.4367004632949829,-0.3110454380512237
2024-12-04 21:58:06.300571000,4.07457080078125,-0.4502982497215271,0.3991482555866241,-0.2556771337985992
2024-12-04 21:58:06.310646000,4.08464599609375,-0.4502023756504059,0.3470834493637085,-0.1421284824609756
2024-12-04 21:58:06.320720000,4.094719970703125,-0.4028308987617492,0.2689993381500244,0.0059449728578329
2024-12-04 21:58:06.330795000,4.104794921875,-0.3085920214653015,0.1458187848329544,0.149751141667366
2024-12-04 21:58:06.340870100,4.1148701171875,-0.1976672708988189,0.0453045070171356,0.2680121660232544
2024-12-04 21:58:06.350944000,4.124944091796875,-0.1027194634079933,-0.035525094717741,0.3606110513210296
2024-12-04 21:58:06.361019100,4.13501904296875,-0.0374786704778671,-0.0803732573986053,0.4198016822338104
2024-12-04 21:58:06.371094000,4.145093994140625,-0.0135874543339014,-0.0726628750562667,0.4270771741867065
2024-12-04 21:58:06.381167400,4.15516748046875,-0.0030633879359811,-0.0434554107487201,0.3654245734214782
2024-12-04 21:58:06.391242500,4.165242431640625,-0.0006353841163218,-0.0768498554825782,0.2488108724355697
2024-12-04 21:58:06.401317400,4.1753173828125,-0.0138593045994639,-0.1161635145545005,0.1450905203819275
2024-12-04 21:58:06.411391500,4.1853916015625,-0.0537736974656581,-0.1289466917514801,0.0668819993734359
2024-12-04 21:58:06.421466400,4.19546630859375,-0.1112007498741149,-0.1354115456342697,0.0163297373801469
2024-12-04 21:58:06.431541500,4.20554150390625,-0.1613526046276092,-0.1227223798632621,-0.0269527547061443
2024-12-04 21:58:06.441615400,4.215615478515625,-0.1797134429216385,-0.0979014262557029,-0.050295166671276
2024-12-04 21:58:06.451690500,4.2256904296875,-0.1671217530965805,-0.06819998472929,-0.0513580366969108
2024-12-04 21:58:06.461765600,4.235765625,-0.1532251834869384,-0.0717280656099319,-0.0589528158307075
2024-12-04 21:58:06.471839500,4.245839599609375,-0.1423283368349075,-0.07126946747303,-0.0782761797308921
2024-12-04 21:58:06.481914600,4.25591455078125,-0.1486910730600357,-0.0800799578428268,-0.1085909456014633
2024-12-04 21:58:06.491989200,4.2659892578125,-0.1564893424510955,-0.0873647704720497,-0.1409834921360016
2024-12-04 21:58:06.502063600,4.276063720703125,-0.1652602404356002,-0.1042065620422363,-0.1345123201608657
2024-12-04 21:58:06.512138200,4.28613818359375,-0.1992613524198532,-0.0686325877904892,-0.0617321170866489
2024-12-04 21:58:06.522213400,4.29621337890625,-0.2035304456949234,-0.0775701627135276,0.0252659991383552
2024-12-04 21:58:06.532287200,4.306287353515625,-0.1942586451768875,-0.0273900795727968,0.0346267446875572
2024-12-04 21:58:06.542362400,4.3163623046875,-0.1575108617544174,0.0374245606362819,-0.0071143140085041
2024-12-04 21:58:06.552437500,4.3264375,-0.1081574112176895,0.1755917519330978,-0.0786548107862472
2024-12-04 21:58:06.562511400,4.336511474609375,-0.0700076296925544,0.2690010666847229,-0.1860494464635849
2024-12-04 21:58:06.572586500,4.34658642578125,-0.0552838109433651,0.2618019878864288,-0.3063247203826904
2024-12-04 21:58:06.582660400,4.356660400390625,-0.0764333084225654,0.344800740480423,-0.4062795639038086
2024-12-04 21:58:06.592735500,4.366735595703125,-0.0585776083171367,0.3746720850467682,-0.436105877161026
2024-12-04 21:58:06.602810400,4.376810302734375,-0.0372824743390083,0.3367805778980255,-0.4148271977901459
2024-12-04 21:58:06.612884500,4.386884521484375,-0.0564284697175025,0.2580061554908752,-0.3576574027538299
2024-12-04 21:58:06.622959400,4.39695947265625,-0.0703175663948059,0.0995606034994125,-0.2519240379333496
2024-12-04 21:58:06.633034500,4.407034423828125,-0.0735650211572647,-0.0473875626921653,-0.1390997469425201
2024-12-04 21:58:06.643108400,4.4171083984375,-0.083815798163414,-0.1487333625555038,-0.0710874050855636
2024-12-04 21:58:06.653183500,4.42718359375,-0.1001074165105819,-0.1783961802721023,-0.0610970966517925
2024-12-04 21:58:06.663258600,4.437258544921875,-0.1285390257835388,-0.1623234003782272,-0.0621000677347183
2024-12-04 21:58:06.673332500,4.44733251953125,-0.1532070934772491,-0.1456820964813232,-0.0326095521450042
2024-12-04 21:58:06.683407600,4.45740771484375,-0.1697254776954651,-0.2756651639938354,0.0605346038937568
2024-12-04 21:58:06.693482500,4.467482421875,-0.1964159458875656,-0.5244595408439636,0.2053043097257614
2024-12-04 21:58:06.703556600,4.477556640625,-0.2112639397382736,-0.780250072479248,0.3314477801322937
2024-12-04 21:58:06.713631500,4.487631591796875,-0.2081576287746429,-0.9225842952728271,0.371019184589386
2024-12-04 21:58:06.723706400,4.497706298828125,-0.2008449286222458,-0.8789335489273071,0.3536696434020996
2024-12-04 21:58:06.733780500,4.507780517578125,-0.1557738631963729,-0.7816003561019897,0.3081575632095337
2024-12-04 21:58:06.743855400,4.51785546875,-0.0715069249272346,-0.7296040058135986,0.2850429117679596
2024-12-04 21:58:06.753930200,4.52793017578125,-0.0310306083410978,-0.7032219171524048,0.25228151679039
2024-12-04 21:58:06.764004400,4.53800439453125,-0.0702647194266319,-0.4376320838928222,0.1187299638986587
2024-12-04 21:58:06.774079500,4.54807958984375,-0.0594642683863639,-0.1150093004107475,-0.0646393299102783
2024-12-04 21:58:06.784153300,4.5581533203125,-0.060414470732212,0.1350256949663162,-0.270511656999588
2024-12-04 21:58:06.794228500,4.568228515625,-0.1622718572616577,0.2976396381855011,-0.440076470375061
2024-12-04 21:58:06.804303400,4.578303466796875,-0.2572193443775177,0.3432319462299347,-0.6272752285003662
2024-12-04 21:58:06.814377500,4.58837744140625,-0.3324419260025024,0.2242805361747741,-0.82835453748703
2024-12-04 21:58:06.824452400,4.598452392578125,-0.4392775595188141,-0.0484784729778766,-1.0316745042800903
2024-12-04 21:58:06.834527500,4.608527587890625,-0.5326279997825623,-0.3020236492156982,-1.2345539331436155
2024-12-04 21:58:06.844601300,4.618601318359375,-0.5739835500717163,-0.5754169225692749,-1.385845184326172
2024-12-04 21:58:06.854676500,4.628676513671875,-0.6321696639060974,-0.8211992383003235,-1.494135499000549
2024-12-04 21:58:06.864751400,4.63875146484375,-0.7190081477165222,-0.8585637211799622,-1.6506646871566772
2024-12-04 21:58:06.874825500,4.648825439453125,-0.722978949546814,-0.764051079750061,-1.9300990104675293
2024-12-04 21:58:06.884900400,4.658900390625,-0.6636128425598145,-0.6482931971549988,-2.286274671554565
2024-12-04 21:58:06.894975500,4.6689755859375,-0.520646870136261,-0.434469610452652,-2.5877270698547363
2024-12-04 21:58:06.905049600,4.679049560546875,-0.3273215293884277,-0.3326390981674194,-2.7830724716186523
2024-12-04 21:58:06.915124500,4.68912451171875,-0.1841199100017547,0.3281691968441009,-2.9476840496063232
2024-12-04 21:58:06.925199600,4.69919970703125,-0.0898728445172309,0.8168847560882568,-3.0794100761413574
2024-12-04 21:58:06.935273500,4.7092734375,0.0979471281170845,0.8004311919212341,-3.01318907737732
2024-12-04 21:58:06.945348600,4.7193486328125,0.3112320303916931,0.8109565377235413,-2.630931615829468
2024-12-04 21:58:06.955422500,4.72942236328125,0.3488444089889526,0.6091930866241455,-2.0314908027648926
2024-12-04 21:58:06.965497600,4.73949755859375,0.3886291086673736,0.2584052979946136,-1.3336914777755735
2024-12-04 21:58:06.975572200,4.749572265625,0.3733867704868316,-0.0668936967849731,-0.6860144734382629
2024-12-04 21:58:06.985646600,4.759646484375,0.4424786567687988,-0.360281229019165,-0.2805313766002655
2024-12-04 21:58:06.995721200,4.76972119140625,0.635458767414093,-0.526309609413147,-0.0624781250953674
2024-12-04 21:58:07.005796400,4.77979638671875,0.8650081157684326,-0.5081755518913269,0.1299011558294296
2024-12-04 21:58:07.015870200,4.7898701171875,1.0528534650802612,-0.3963028490543365,0.3150784373283386
2024-12-04 21:58:07.025945300,4.7999453125,1.1238316297531128,-0.3581878244876861,0.5011118650436401
2024-12-04 21:58:07.036020500,4.8100205078125,1.097462773323059,-0.4285168647766113,0.6747992038726807
2024-12-04 21:58:07.046094300,4.82009423828125,1.045481562614441,-0.5546146631240845,0.7181241512298584
2024-12-04 21:58:07.056169500,4.83016943359375,1.0811063051223757,-0.8214109539985657,0.7260675430297852
2024-12-04 21:58:07.066243300,4.840243408203125,1.1321731805801392,-0.8041090369224548,0.7638000845909119
2024-12-04 21:58:07.076318500,4.850318359375,1.139387130737305,-0.5567799210548401,0.8017352223396301
2024-12-04 21:58:07.086393300,4.860393310546875,1.1263999938964844,-0.3680409789085388,0.8121204972267151
2024-12-04 21:58:07.096467500,4.870467529296875,1.150492787361145,-0.2256942242383957,0.8499336838722229
2024-12-04 21:58:07.106542300,4.880542236328125,1.200292944908142,-0.0680040121078491,0.8724792003631592
2024-12-04 21:58:07.116617500,4.890617431640625,1.2535690069198608,0.1820558905601501,0.790225088596344
2024-12-04 21:58:07.126691300,4.90069140625,1.3065862655639648,0.4800401031970978,0.599164605140686
2024-12-04 21:58:07.136766500,4.910766357421875,1.3590222597122192,0.8922867774963379,0.4221072793006897
2024-12-04 21:58:07.146841600,4.920841552734375,1.2724599838256836,1.231779932975769,0.2696016728878021
2024-12-04 21:58:07.156915500,4.93091552734375,0.8604884147644043,1.4286671876907349,0.1448381692171096
2024-12-04 21:58:07.166990600,4.940990478515625,0.3054627776145935,1.5302464962005615,0.1115999296307563
2024-12-04 21:58:07.177065500,4.9510654296875,0.0224451813846826,1.5123412609100342,0.1780910789966583
2024-12-04 21:58:07.187139600,4.9611396484375,0.0178553201258182,1.3982197046279907,0.300667256116867
2024-12-04 21:58:07.197214500,4.97121435546875,0.0921346098184585,1.2570323944091797,0.4155424535274505
2024-12-04 21:58:07.207288600,4.98128857421875,0.1852397620677948,1.2189698219299316,0.4538652896881103
2024-12-04 21:58:07.217363500,4.991363525390625,0.3159098923206329,1.2788909673690796,0.4270576536655426
2024-12-04 21:58:07.227438300,5.001438232421875,0.3766353726387024,1.3623472452163696,0.3341738283634186
2024-12-04 21:58:07.237512400,5.011512451171875,0.3618196845054626,1.4249083995819092,0.2602777779102325
2024-12-04 21:58:07.247587300,5.02158740234375,0.566659152507782,1.828360199928284,0.460624486207962
2024-12-04 21:58:07.257662500,5.031662353515625,0.8280047178268433,2.2258691787719727,0.6902316212654114
2024-12-04 21:58:07.267736300,5.041736328125,1.0299289226531982,2.499267101287842,0.7398326992988586
2024-12-04 21:58:07.277811500,5.0518115234375,1.203091382980347,2.212858200073242,0.6341264843940735
2024-12-04 21:58:07.287886300,5.06188623046875,1.2394472360610962,1.849387764930725,0.5577999353408813
2024-12-04 21:58:07.297960400,5.07196044921875,1.218174695968628,1.8308653831481927,0.6511058807373047
2024-12-04 21:58:07.308035300,5.082035400390625,1.1851483583450315,1.815851092338562,0.8173139691352844
2024-12-04 21:58:07.318110500,5.0921103515625,1.124482035636902,1.4676182270050049,0.908130943775177
2024-12-04 21:58:07.328184300,5.102184326171875,0.9980618357658386,0.8127805590629578,0.8615607619285583
2024-12-04 21:58:07.338259500,5.112259521484375,0.7433109879493713,-0.2188201546669006,0.6313813924789429
2024-12-04 21:58:07.348334600,5.12233447265625,0.3485003411769867,-1.632726550102234,0.2794985175132751
2024-12-04 21:58:07.358408400,5.132408447265625,0.041758257895708,-2.245979070663452,0.0122787915170192
2024-12-04 21:58:07.368483600,5.142483642578125,-0.0868310630321502,-1.8966810703277588,-0.3572198152542114
2024-12-04 21:58:07.378558500,5.152558349609375,-0.1682169884443283,-1.4720726013183594,-0.4911997318267822
2024-12-04 21:58:07.388632000,5.162632080078125,-0.2703677415847778,-0.9687720537185668,-0.5162742137908936
2024-12-04 21:58:07.398707000,5.17270703125,-0.4097962081432342,-0.637755274772644,-0.682870626449585
2024-12-04 21:58:07.408782000,5.182781982421875,-0.4974808096885681,-0.7476868629455566,-1.0958021879196167
2024-12-04 21:58:07.418856200,5.192856201171875,-0.4869591891765594,-1.1181988716125488,-1.4979642629623413
2024-12-04 21:58:07.428931000,5.20293115234375,-0.4782702922821045,-1.2189568281173706,-1.7346272468566897
2024-12-04 21:58:07.439006200,5.213006103515625,-0.4922103583812713,-0.8343412280082703,-1.7849152088165283
2024-12-04 21:58:07.449080000,5.223080078125,-0.5291146039962769,-0.295574814081192,-1.743186593055725
2024-12-04 21:58:07.459155200,5.2331552734375,-0.5050740242004395,0.281345784664154,-1.6721689701080322
2024-12-04 21:58:07.469229000,5.24322900390625,-0.4073555469512939,0.6214687824249268,-1.6243016719818115
2024-12-04 21:58:07.479304200,5.25330419921875,-0.3351902663707733,0.7434764504432678,-1.5491493940353394
2024-12-04 21:58:07.489378800,5.26337890625,-0.423688530921936,1.171431303024292,-1.119447112083435
2024-12-04 21:58:07.499453200,5.273453125,-0.5492832660675049,1.4308372735977173,-0.2614781558513641
2024-12-04 21:58:07.509527800,5.28352783203125,-0.4801588058471679,1.1757224798202517,0.6814025044441223
2024-12-04 21:58:07.519603000,5.29360302734375,-0.5018028020858765,0.7445762157440186,1.4014079570770264
2024-12-04 21:58:07.529676800,5.3036767578125,-0.5320714712142944,0.5887835621833801,1.9601314067840576
2024-12-04 21:58:07.539752000,5.313751953125,-0.4671891033649444,0.6538941264152527,2.4160404205322266
2024-12-04 21:58:07.549827000,5.3238271484375,-0.2858420312404632,1.49839186668396,3.048509359359741
2024-12-04 21:58:07.559901000,5.33390087890625,0.1039243713021278,2.0624914169311523,3.628337383270264
2024-12-04 21:58:07.569976000,5.34397607421875,0.5422650575637817,1.799464464187622,3.9568545818328857
2024-12-04 21:58:07.580051000,5.354051025390625,0.628645658493042,1.3081679344177246,3.898947238922119
2024-12-04 21:58:07.590125000,5.364125,0.5888798236846924,0.9061192274093628,3.516678094863892
2024-12-04 21:58:07.600200000,5.374199951171875,0.6215049028396606,0.9522595405578612,3.184636116027832
2024-12-04 21:58:07.610275000,5.384275146484375,0.7676708102226257,1.2111893892288208,2.90990686416626
2024-12-04 21:58:07.620349000,5.394348876953125,0.9208001494407654,1.168785810470581,2.4989733695983887
2024-12-04 21:58:07.630424000,5.404424072265625,0.9156127572059632,1.2698084115982056,2.0130727291107178
2024-12-04 21:58:07.640499200,5.414499267578125,0.7799862623214722,1.4079936742782593,1.4970637559890747
2024-12-04 21:58:07.650574000,5.424573974609375,0.5486515760421753,1.3054007291793823,0.9702834486961364
2024-12-04 21:58:07.660648200,5.434648193359375,0.350865751504898,1.0305917263031006,0.5601832866668701
2024-12-04 21:58:07.670723000,5.44472314453125,0.2186440527439117,0.760356605052948,0.4713318645954132
2024-12-04 21:58:07.680798000,5.4547978515625,0.0450520254671573,0.5086777806282043,0.6278026700019836
2024-12-04 21:58:07.690872000,5.4648720703125,-0.0382919982075691,0.0919492021203041,0.7418787479400635
2024-12-04 21:58:07.700947000,5.474947021484375,-0.0278172492980957,-0.3478023409843445,0.7505835890769958
2024-12-04 21:58:07.711022000,5.48502197265625,-0.0449449904263019,-0.6665852069854736,0.6106510758399963
2024-12-04 21:58:07.721096000,5.495095947265625,-0.1006346195936203,-0.8387854695320129,0.3863378167152405
2024-12-04 21:58:07.731171000,5.505171142578125,-0.1047119721770286,-0.9643098711967468,0.1733593493700027
2024-12-04 21:58:07.741246000,5.515245849609375,-0.0402064770460128,-1.1860414743423462,-0.020984036847949
2024-12-04 21:58:07.751320000,5.525320068359375,0.0533321388065815,-1.511334776878357,-0.2157940417528152
2024-12-04 21:58:07.761395000,5.53539501953125,0.1069303825497627,-1.6135433912277222,-0.3839044868946075
2024-12-04 21:58:07.771470000,5.545469970703125,0.0260810106992721,-1.2702338695526123,-0.5628880262374878
2024-12-04 21:58:07.781544000,5.5555439453125,-0.0950632542371749,-0.8517875671386719,-0.7850108742713928
2024-12-04 21:58:07.791619000,5.565619140625,-0.5473259091377258,-0.5164216160774231,-0.7891165614128113
2024-12-04 21:58:07.801694000,5.57569384765625,-1.056501030921936,-0.4397356212139129,-0.6767777800559998
2024-12-04 21:58:07.811769000,5.58576904296875,-1.481903910636902,-0.6488800048828125,-0.4607259929180145
2024-12-04 21:58:07.821843000,5.595843017578125,-1.8372646570205688,-0.8718914985656738,-0.2277012467384338
2024-12-04 21:58:07.831918000,5.60591796875,-2.0958173274993896,-1.002283811569214,0.0157740414142608
2024-12-04 21:58:07.841993200,5.6159931640625,-2.223611354827881,-1.1115845441818235,0.2556526958942413
2024-12-04 21:58:07.852067000,5.626067138671875,-2.1968672275543213,-1.124631404876709,0.4671269655227661
2024-12-04 21:58:07.862142200,5.63614208984375,-2.044231653213501,-0.8683737516403198,0.6404331922531128
2024-12-04 21:58:07.872216800,5.646216796875,-1.7996187210083008,-0.4313671886920929,0.7686759233474731
2024-12-04 21:58:07.882291200,5.656291259765625,-1.479899287223816,-0.0364153608679771,0.8025891184806824
2024-12-04 21:58:07.892365800,5.66636572265625,-1.1571956872940063,0.2723630368709564,0.6860106587409973
2024-12-04 21:58:07.902441000,5.67644091796875,-0.8595522046089172,0.3151983618736267,0.4167472124099731
2024-12-04 21:58:07.912516000,5.68651611328125,-0.5934358835220337,0.1744947582483291,0.0592675022780895
2024-12-04 21:58:07.922590000,5.69658984375,-0.3437761962413788,0.1118383109569549,-0.3010022640228271
2024-12-04 21:58:07.932665000,5.7066650390625,-0.1585558354854583,0.3085017800331116,-0.5882429480552673
2024-12-04 21:58:07.942740000,5.716739990234375,-0.0816751793026924,0.5736039876937866,-0.7701637148857117
2024-12-04 21:58:07.952815000,5.726815185546875,0.013190658763051,0.6208947896957397,-0.8579176664352417
2024-12-04 21:58:07.962889000,5.736888916015625,0.111910842359066,0.5615361332893372,-0.8084811568260193
2024-12-04 21:58:07.972964000,5.746964111328125,0.2214276045560836,0.4841917753219604,-0.602717399597168
2024-12-04 21:58:07.983039200,5.757039306640625,0.3012388050556183,0.4696250855922699,-0.2778668701648712
2024-12-04 21:58:07.993113000,5.767113037109375,0.2825628519058227,0.5765101313591003,0.094379648566246
2024-12-04 21:58:08.003188200,5.777188232421875,0.1732121258974075,0.7072044610977173,0.3888016939163208
2024-12-04 21:58:08.013263000,5.78726318359375,0.0371333472430706,0.661651611328125,0.5158037543296814
2024-12-04 21:58:08.023338000,5.797337890625,-0.0706921890377998,0.5502752661705017,0.4957533478736877
2024-12-04 21:58:08.033412000,5.807412109375,-0.1435217857360839,0.4514046013355255,0.3759779930114746
2024-12-04 21:58:08.043487000,5.817487060546875,-0.2018420845270156,0.41004678606987,0.2262707948684692
2024-12-04 21:58:08.053561900,5.827561767578125,-0.2705824077129364,0.4562571942806244,0.07224041223526
2024-12-04 21:58:08.063637000,5.837636962890625,-0.3043257296085357,0.5108280181884766,-0.0853412225842475
2024-12-04 21:58:08.073710800,5.8477109375,-0.324804812669754,0.5201635360717773,-0.1990666389465332
2024-12-04 21:58:08.083786000,5.857785888671875,-0.2510557472705841,0.4682915806770324,-0.2548950016498565
2024-12-04 21:58:08.093861000,5.867861083984375,-0.2151588350534439,0.4512900710105896,-0.2697519659996032
2024-12-04 21:58:08.103935000,5.87793505859375,-0.1825454980134964,0.4341707229614258,-0.2571227252483368
2024-12-04 21:58:08.114010000,5.888010009765625,-0.1648037135601043,0.3895083367824554,-0.2303297519683838
2024-12-04 21:58:08.124085000,5.8980849609375,-0.1239396408200264,0.3288231492042541,-0.1669704765081405
2024-12-04 21:58:08.134160100,5.90816015625,-0.0691982805728912,0.285542756319046,-0.0289889834821224
2024-12-04 21:58:08.144234000,5.91823388671875,-0.0289081204682588,0.2385853677988052,0.1363107711076736
2024-12-04 21:58:08.154309000,5.92830908203125,0.0120043344795703,0.1686813235282898,0.265444666147232
2024-12-04 21:58:08.164384000,5.938384033203125,0.0684692114591598,0.1370251327753067,0.3378253877162933
2024-12-04 21:58:08.174459000,5.948458984375,0.1032186970114708,0.1844686269760131,0.3715146481990814
2024-12-04 21:58:08.184533000,5.958532958984375,0.2211863398551941,0.3426412343978882,0.3717788159847259
2024-12-04 21:58:08.194607900,5.96860791015625,0.247438907623291,0.5453563928604126,0.3253833353519439
2024-12-04 21:58:08.204683000,5.97868310546875,0.2551807165145874,0.7438452243804932,0.3111812174320221
2024-12-04 21:58:08.214758000,5.9887578125,0.2746955752372741,0.8279898166656494,0.3227107226848602
2024-12-04 21:58:08.224832000,5.99883203125,0.2553061842918396,0.8863484263420105,0.2851130068302154
2024-12-04 21:58:08.234907000,6.008906982421875,0.2183304280042648,1.160517930984497,0.1906490921974182
2024-12-04 21:58:08.244982000,6.01898193359375,0.1912503540515899,1.6731077432632446,0.123116910457611
2024-12-04 21:58:08.255057200,6.02905712890625,0.1523674875497818,2.04400372505188,0.0817312598228454
2024-12-04 21:58:08.265132000,6.039132080078125,0.0850009620189666,2.312185525894165,0.045820128172636
2024-12-04 21:58:08.275206100,6.0492060546875,-0.0227107219398021,2.640249967575073,0.0888378545641899
2024-12-04 21:58:08.285281000,6.059281005859375,-0.2529820203781128,2.245584726333618,0.3857704401016235
2024-12-04 21:58:08.295356200,6.069356201171875,-0.4953090250492096,0.567895770072937,0.3382619321346283
2024-12-04 21:58:08.305431000,6.07943115234375,-0.417901873588562,-0.6687441468238831,0.0934644490480423
2024-12-04 21:58:08.315505200,6.089505126953125,-0.0883699357509613,-0.8291588425636292,-0.1034647151827812
2024-12-04 21:58:08.325580000,6.099580078125,0.154792919754982,-0.6145620942115784,-0.1949016898870468
2024-12-04 21:58:08.335655000,6.109655029296875,0.2011421769857406,-0.3973369896411896,-0.1781912893056869
2024-12-04 21:58:08.345730000,6.11972998046875,0.122713416814804,-0.0571663603186607,-0.0727482140064239
2024-12-04 21:58:08.355805000,6.129804931640625,0.0222460720688104,0.3247921466827392,0.0438921526074409
2024-12-04 21:58:08.365879000,6.139879150390625,-0.1292324066162109,0.5593675971031189,0.1005274727940559
2024-12-04 21:58:08.375954000,6.149953857421875,-0.2005165219306945,0.5696336030960083,0.1641663908958435
2024-12-04 21:58:08.386030000,6.160030029296875,-0.1694555431604385,0.5536996722221375,0.1377094835042953
2024-12-04 21:58:08.396105000,6.17010498046875,-0.0523900166153907,0.791076123714447,0.0538963004946708
2024-12-04 21:58:08.406179000,6.180178955078125,0.1247232407331466,1.2438340187072754,-0.0159416384994983
2024-12-04 21:58:08.416254000,6.19025390625,0.2446719110012054,1.7533365488052368,-0.0683170109987258
2024-12-04 21:58:08.426329000,6.2003291015625,0.3093065619468689,2.2686915397644043,-0.0930897369980812
2024-12-04 21:58:08.436404000,6.210404052734375,0.3727399706840515,2.819186449050904,-0.0571451894938945
2024-12-04 21:58:08.446479000,6.22047900390625,0.400227278470993,3.4055607318878174,0.0254351757466793
2024-12-04 21:58:08.456553000,6.230552978515625,0.2440983802080154,3.824893712997437,0.0675510168075561
2024-12-04 21:58:08.466628000,6.240628173828125,0.0819457024335861,3.930811882019043,0.1400619596242904
2024-12-04 21:58:08.476703000,6.250702880859375,0.0140397995710372,3.7289962768554688,0.1950890868902206
2024-12-04 21:58:08.486778000,6.260778076171875,0.050137884914875,3.638839721679688,0.2466449588537216
2024-12-04 21:58:08.496853000,6.27085302734375,0.166891723871231,3.768033981323242,0.312350183725357
2024-12-04 21:58:08.506927000,6.280927001953125,0.2758358120918274,3.809800148010254,0.3621448874473572
2024-12-04 21:58:08.517002000,6.291001953125,0.3508112728595733,3.47471022605896,0.4959731996059418
2024-12-04 21:58:08.527076900,6.301076904296875,0.2124984115362167,1.2596921920776367,0.6265929937362671
2024-12-04 21:58:08.537152000,6.311152099609375,0.0096497721970081,-0.9290956258773804,0.529451310634613
2024-12-04 21:58:08.547227100,6.32122705078125,0.1847219914197921,-1.5309470891952517,0.3857047855854034
2024-12-04 21:58:08.557302000,6.331302001953125,0.550918698310852,-1.3222429752349854,0.4353716075420379
2024-12-04 21:58:08.567376100,6.341376220703125,0.6826886534690857,-1.2577818632125854,0.6795811057090759
2024-12-04 21:58:08.577451000,6.351450927734375,0.6616024971008301,-1.2114620208740234,1.0079041719436646
2024-12-04 21:58:08.587526100,6.361526123046875,0.6326305270195007,-1.1137570142745972,1.2266569137573242
2024-12-04 21:58:08.597601000,6.37160107421875,0.6452498435974121,-1.022735834121704,1.2529189586639404
2024-12-04 21:58:08.607676000,6.381676025390625,0.662954568862915,-0.8989525437355042,1.0408096313476562
2024-12-04 21:58:08.617750000,6.39175,0.6919599175453186,-0.6441187262535095,0.649405837059021
2024-12-04 21:58:08.627825000,6.401824951171875,0.7000170350074768,-0.301373153924942,0.1805028021335601
2024-12-04 21:58:08.637900000,6.411900146484375,0.778237521648407,0.4371552467346191,-0.2274655103683471
2024-12-04 21:58:08.647975000,6.421974853515625,0.8401855826377869,1.254824995994568,-0.3065091967582702
2024-12-04 21:58:08.658050000,6.432050048828125,0.7411404848098755,1.8068846464157104,-0.0746270045638084
2024-12-04 21:58:08.668125000,6.442125,0.6172637939453125,1.976820945739746,0.3299585580825805
2024-12-04 21:58:08.678199000,6.452198974609375,0.4361030459403991,1.592941403388977,0.4085623621940613
2024-12-04 21:58:08.688274200,6.462274169921875,0.1076676473021507,0.3185730576515198,0.1137674674391746
2024-12-04 21:58:08.698349000,6.47234912109375,0.0564542412757873,-0.5699772238731384,-0.1555751115083694
2024-12-04 21:58:08.708424200,6.482424072265625,0.2038189321756363,-0.800744891166687,-0.1489342451095581
2024-12-04 21:58:08.718499000,6.4924990234375,0.2479335665702819,-0.8795239925384521,0.0502951294183731
2024-12-04 21:58:08.728574000,6.502573974609375,0.1924529820680618,-1.0175672769546509,0.1937308460474014
2024-12-04 21:58:08.738648000,6.51264794921875,0.0415485575795173,-1.291846513748169,0.14364555478096
2024-12-04 21:58:08.748723000,6.522722900390625,-0.1577301919460296,-1.7379274368286133,-0.0966378822922706
2024-12-04 21:58:08.758798000,6.532798095703125,-0.2886560261249542,-2.266334295272827,-0.3829465508460998
2024-12-04 21:58:08.768873000,6.542873046875,-0.2935421466827392,-2.446990728378296,-0.5398855209350586
2024-12-04 21:58:08.778948000,6.552947998046875,-0.2484005838632583,-2.2332310676574707,-0.5038904547691345
2024-12-04 21:58:08.789023000,6.56302294921875,-0.190054178237915,-1.7738186120986938,-0.2916221618652344
2024-12-04 21:58:08.799098000,6.57309814453125,-0.1654044985771179,-1.0855015516281128,-0.0136888707056641
2024-12-04 21:58:08.809172000,6.583171875,-0.0836390703916549,0.0187211669981479,0.2151190042495727
2024-12-04 21:58:08.819247000,6.5932470703125,0.1217689514160156,0.7279255390167236,0.2669667601585388
2024-12-04 21:58:08.829322000,6.603322021484375,0.398043692111969,0.7578464150428772,0.2963249385356903
2024-12-04 21:58:08.839396900,6.61339697265625,0.6877477169036865,0.0399469584226608,0.1522157490253448
2024-12-04 21:58:08.849472000,6.623471923828125,0.9151363968849182,-0.7272389531135559,-0.1460841298103332
2024-12-04 21:58:08.859547100,6.633547119140625,0.9619195461273192,-0.947140097618103,-0.2743461728096008
2024-12-04 21:58:08.869622000,6.6436220703125,0.7857546806335449,-0.8361341953277588,-0.1634159535169601
2024-12-04 21:58:08.879696100,6.653696044921875,0.4347643256187439,-0.54964679479599,0.0276435203850269
2024-12-04 21:58:08.889771000,6.66377099609375,0.005821771454066,-0.3406283557415008,0.1020200178027153
2024-12-04 21:58:08.899846100,6.67384619140625,-0.2936466634273529,-0.4158181250095367,-0.0849687829613685
2024-12-04 21:58:08.909921000,6.683921142578125,-0.3942675590515136,-0.583805501461029,-0.5001470446586609
2024-12-04 21:58:08.919996000,6.693995849609375,-0.3143239319324493,-0.6682932376861572,-0.9160355925559998
2024-12-04 21:58:08.930071000,6.704071044921875,-0.1415745317935943,-0.7404361367225647,-1.208831548690796
2024-12-04 21:58:08.940146000,6.71414599609375,0.0699411034584045,-1.0082634687423706,-1.2534762620925903
2024-12-04 21:58:08.950221000,6.724220947265625,0.2595528364181518,-1.0994501113891602,-1.0059103965759275
2024-12-04 21:58:08.960295000,6.734294921875,0.3596342206001282,-0.9852692484855652,-0.6118090748786926
2024-12-04 21:58:08.970370000,6.7443701171875,0.4843481779098511,-0.8358739018440247,-0.4027035534381866
2024-12-04 21:58:08.980445000,6.75444482421875,0.6690191626548767,-0.1951207518577575,-0.2235385775566101
2024-12-04 21:58:08.990520000,6.76452001953125,0.8041123151779175,0.6925353407859802,-0.0434287339448928
2024-12-04 21:58:09.000595200,6.77459521484375,0.7416024804115295,1.7478647232055664,0.1474133729934692
2024-12-04 21:58:09.010669800,6.784669921875,0.6013385653495789,2.5152783393859863,0.518924355506897
2024-12-04 21:58:09.020745000,6.794744873046875,0.5504541993141174,2.1281557083129883,0.755153477191925
2024-12-04 21:58:09.030820000,6.804820068359375,0.4794596433639526,0.4045625925064087,0.5786338448524475
2024-12-04 21:58:09.040894000,6.81489404296875,0.266343206167221,-0.5952268838882446,0.3786817789077759
2024-12-04 21:58:09.050969000,6.824968994140625,-0.0469073876738548,-0.8929299116134644,0.2790220379829407
2024-12-04 21:58:09.061044000,6.8350439453125,-0.321087121963501,-1.0399816036224363,0.1418223530054092
2024-12-04 21:58:09.071119000,6.845119140625,-0.5008361339569092,-0.8546233773231506,0.0002939812839031
2024-12-04 21:58:09.081194000,6.855194091796875,-0.6227608919143677,-0.2446544468402862,-0.1172816455364227
2024-12-04 21:58:09.091269000,6.86526904296875,-0.6565499901771545,0.4008342921733856,-0.2882102429866791
2024-12-04 21:58:09.101344000,6.875343994140625,-0.5352180004119873,0.5951661467552185,-0.5263721942901611
2024-12-04 21:58:09.111419000,6.8854189453125,-0.2642440497875213,0.4522814452648163,-0.672232985496521
2024-12-04 21:58:09.121494000,6.895493896484375,0.0562269911170005,0.3778599798679352,-0.5886984467506409
2024-12-04 21:58:09.131569000,6.90556884765625,0.2836076617240906,0.4271327257156372,-0.3124566972255707
2024-12-04 21:58:09.141643000,6.91564306640625,0.3503192365169525,0.5271624326705933,0.0178397148847579
2024-12-04 21:58:09.151718100,6.92571826171875,0.3025762140750885,0.4462617635726928,0.3270295262336731
2024-12-04 21:58:09.161793000,6.93579296875,0.1682005375623703,0.3698349297046661,0.6231714487075806
2024-12-04 21:58:09.171868200,6.9458681640625,0.073890283703804,-0.2593347430229187,0.6971293091773987
2024-12-04 21:58:09.181943000,6.955943115234375,-0.0224197804927825,-1.1360127925872805,0.4496835470199585
2024-12-04 21:58:09.192018000,6.966017822265625,-0.1680901646614074,-1.3651999235153198,0.1611907631158828
2024-12-04 21:58:09.202093000,6.976093017578125,-0.3136376142501831,-1.304360270500183,-0.0917213931679725
2024-12-04 21:58:09.212168000,6.98616796875,-0.4003165960311889,-1.1827454566955566,-0.3548094630241394
2024-12-04 21:58:09.222243000,6.9962431640625,-0.4488442838191986,-0.8774744272232056,-0.5755615234375
2024-12-04 21:58:09.232318000,7.00631787109375,-0.4957979619503021,-0.5544961094856262,-0.8076483011245728
2024-12-04 21:58:09.242393000,7.01639306640625,-0.5156298875808716,-0.3593449294567108,-1.0557398796081543
2024-12-04 21:58:09.252467000,7.026467041015625,-0.5013106465339661,-0.3085547089576721,-1.2377184629440308
2024-12-04 21:58:09.262542000,7.0365419921875,-0.5064947605133057,-0.4406127333641052,-1.3357033729553225
2024-12-04 21:58:09.272617200,7.0466171875,-0.4812661409378052,-0.6977763772010803,-1.296206831932068
2024-12-04 21:58:09.282691800,7.05669189453125,-0.452216237783432,-0.8257293105125427,-1.1473029851913452
2024-12-04 21:58:09.292767000,7.06676708984375,-0.4567976593971252,-0.9110639095306396,-0.9437060356140136
2024-12-04 21:58:09.302842000,7.076842041015625,-0.4924499094486236,-0.94139301776886,-0.7196447253227234
2024-12-04 21:58:09.312917000,7.0869169921875,-0.551342248916626,-0.9829513430595398,-0.5073679089546204
2024-12-04 21:58:09.322992000,7.0969921875,-0.6136482954025269,-0.9942753314971924,-0.3253658711910248
2024-12-04 21:58:09.333067000,7.10706689453125,-0.6642593145370483,-0.9379447102546692,-0.1633628606796264
2024-12-04 21:58:09.343142100,7.11714208984375,-0.6618423461914062,-0.8618055582046509,-0.0229913480579853
2024-12-04 21:58:09.353217000,7.127217041015625,-0.6343460083007812,-0.7590869069099426,0.0627728253602981
2024-12-04 21:58:09.363292000,7.1372919921875,-0.5877624750137329,-0.6718876957893372,0.0625278130173683
2024-12-04 21:58:09.373367000,7.147366943359375,-0.5431897044181824,-0.6103681325912476,-0.0345854200422763
2024-12-04 21:58:09.383441200,7.157441162109375,-0.4788855612277984,-0.5725894570350647,-0.1741848886013031
2024-12-04 21:58:09.393515000,7.167514892578125,-0.4025431275367737,-0.577576756477356,-0.3231876790523529
2024-12-04 21:58:09.403590100,7.177590087890625,-0.3211501538753509,-0.6754543781280518,-0.4164369404315948
2024-12-04 21:58:09.413665300,7.187665283203125,-0.2576239109039306,-0.8055213093757629,-0.4262166023254394
2024-12-04 21:58:09.423740200,7.197740234375,-0.2390683889389038,-0.902121365070343,-0.3242452144622803
2024-12-04 21:58:09.433815300,7.207815185546875,-0.254711776971817,-0.9369286298751832,-0.157098039984703
2024-12-04 21:58:09.443890200,7.21789013671875,-0.2921039760112762,-0.968953251838684,0.0253721289336681
2024-12-04 21:58:09.453965300,7.22796533203125,-0.329108864068985,-1.040615200996399,0.1598867923021316
2024-12-04 21:58:09.464040200,7.238040283203125,-0.4035796821117401,-1.166883945465088,0.2247137725353241
2024-12-04 21:58:09.474115000,7.248114990234375,-0.5039300322532654,-1.3475933074951172,0.2494127303361892
2024-12-04 21:58:09.484190200,7.258190185546875,-0.552900493144989,-1.2957532405853271,0.2232319414615631
2024-12-04 21:58:09.494265000,7.26826513671875,-0.4956651926040649,-1.0279260873794556,0.1336059123277664
2024-12-04 21:58:09.504340200,7.27834033203125,-0.3088937997817993,-0.7279184460639954,0.0382474027574062
2024-12-04 21:58:09.514415400,7.288415283203125,-0.0238761790096759,-0.4734289050102234,-0.0418503619730472
2024-12-04 21:58:09.524490200,7.298490234375,0.2013217657804489,-0.4273984134197235,-0.0973213165998458
2024-12-04 21:58:09.534565000,7.308565185546875,0.2563067376613617,-0.5785253643989563,-0.0845064520835876
2024-12-04 21:58:09.544640300,7.31864013671875,0.2233044356107711,-0.7103476524353027,0.0030733933672308
2024-12-04 21:58:09.554715100,7.328715087890625,0.171273723244667,-0.8585472702980042,0.0978313237428665
2024-12-04 21:58:09.564790300,7.338790283203125,0.1038833111524581,-1.0675233602523804,0.1685516089200973
2024-12-04 21:58:09.574864100,7.348864013671875,0.0232153683900833,-1.3400824069976809,0.2182331532239914
2024-12-04 21:58:09.584939300,7.358939208984375,-0.0566389262676239,-1.598819375038147,0.2237248867750167
2024-12-04 21:58:09.595014100,7.36901416015625,-0.0990684106945991,-1.58873188495636,0.1402683407068252
2024-12-04 21:58:09.605089300,7.37908935546875,-0.0842904299497604,-1.354453444480896,0.1022228449583053
2024-12-04 21:58:09.615164200,7.3891640625,0.0167981069535017,-1.0291296243667605,0.0879736021161079
2024-12-04 21:58:09.625239000,7.399239013671875,0.1532037407159805,-0.7281339168548584,0.0635165125131607
2024-12-04 21:58:09.635314200,7.409314208984375,0.2628250420093536,-0.4481688439846039,0.029900224879384
2024-12-04 21:58:09.645389000,7.41938916015625,0.3307296633720398,-0.2445088475942611,-0.028960146009922
2024-12-04 21:58:09.655464200,7.429464111328125,0.3681550621986389,-0.1187764927744865,-0.1199156194925308
2024-12-04 21:58:09.665539300,7.439539306640625,0.4115455150604248,-0.0709374696016311,-0.2145838290452957
2024-12-04 21:58:09.675614200,7.4496142578125,0.4365642964839935,-0.0860991105437278,-0.2944477498531341
2024-12-04 21:58:09.685690000,7.459690185546875,0.3815525770187378,-0.1675581037998199,-0.3467146456241607
2024-12-04 21:58:09.695765200,7.46976513671875,0.2240391075611114,-0.2631626725196838,-0.3651253283023834
2024-12-04 21:58:09.705840000,7.479840087890625,0.0223607681691646,-0.2983814775943756,-0.3515573740005493
2024-12-04 21:58:09.715915300,7.489915283203125,-0.170500561594963,-0.2177747637033462,-0.3226727545261383
2024-12-04 21:58:09.725990400,7.499990478515625,-0.267097920179367,-0.1324091255664825,-0.2954075932502746
2024-12-04 21:58:09.736065000,7.51006494140625,-0.2574524879455566,-0.0513952299952507,-0.3164990246295929
2024-12-04 21:58:09.746140200,7.52014013671875,-0.1920591741800308,0.0555642247200012,-0.319544643163681
2024-12-04 21:58:09.756215000,7.530215087890625,-0.1188427358865737,0.181921899318695,-0.291268527507782
2024-12-04 21:58:09.766290200,7.540290283203125,-0.0866779759526252,0.2687188684940338,-0.2344904989004135
2024-12-04 21:58:09.776364000,7.550364013671875,-0.0218651574105024,0.1644832640886306,-0.1962219476699829
2024-12-04 21:58:09.786439200,7.560439208984375,0.0286098718643188,-0.0944586023688316,-0.1589211970567703
2024-12-04 21:58:09.796514300,7.570514404296875,0.0310924723744392,-0.1266447603702545,-0.0512250885367393
2024-12-04 21:58:09.806589200,7.580589111328125,0.0318238660693168,-0.1603083908557891,0.0720266997814178
2024-12-04 21:58:09.816664300,7.590664306640625,-0.0622144788503646,-0.2587206959724426,0.1602694690227508
2024-12-04 21:58:09.826739200,7.6007392578125,-0.1487315595149994,-0.3779716491699219,0.2555183470249176
2024-12-04 21:58:09.836814000,7.61081396484375,-0.178682267665863,-0.3799908459186554,0.351917028427124
2024-12-04 21:58:09.846889200,7.62088916015625,-0.181549996137619,-0.3147209286689758,0.4149441421031952
2024-12-04 21:58:09.856964000,7.630964111328125,-0.206170916557312,-0.3283288776874542,0.4277076125144958
2024-12-04 21:58:09.867039200,7.641039306640625,-0.2639083862304687,-0.4159975349903106,0.3951371908187866
2024-12-04 21:58:09.877114400,7.6511142578125,-0.3355463743209839,-0.50208979845047,0.3543024361133575
2024-12-04 21:58:09.887189200,7.661189208984375,-0.3739745020866394,-0.5877793431282043,0.3149893581867218
2024-12-04 21:58:09.897264000,7.67126416015625,-0.3678859770298004,-0.6547764539718628,0.2989925444126129
2024-12-04 21:58:09.907339000,7.681339111328125,-0.319885104894638,-0.7171974778175354,0.3251228332519531
2024-12-04 21:58:09.917414100,7.6914140625,-0.2986612915992737,-0.9045718908309937,0.3898522853851318
2024-12-04 21:58:09.927489300,7.7014892578125,-0.3394534885883331,-1.2280762195587158,0.4947189688682556
2024-12-04 21:58:09.937564200,7.711564208984375,-0.4445466101169586,-1.44333016872406,0.627404510974884
2024-12-04 21:58:09.947639300,7.721639404296875,-0.5812526345252991,-1.5585764646530151,0.688220739364624
2024-12-04 21:58:09.957714200,7.731714111328125,-0.6860933303833008,-1.675302028656006,0.6217399835586548
2024-12-04 21:58:09.967789000,7.7417890625,-0.7366836667060852,-1.750749111175537,0.5184685587882996
2024-12-04 21:58:09.977864200,7.7518642578125,-0.7128739356994629,-1.644078016281128,0.4368250668048858
2024-12-04 21:58:09.987939000,7.76193896484375,-0.5960974097251892,-1.3979671001434326,0.3719677031040191
2024-12-04 21:58:09.998014200,7.77201416015625,-0.4452966749668121,-1.0427583456039429,0.3584114015102386
2024-12-04 21:58:10.008089300,7.78208935546875,-0.3040203750133514,-0.5412676930427551,0.3770651221275329
2024-12-04 21:58:10.018164200,7.792164306640625,-0.1816060543060302,-0.119635485112667,0.3753353953361511
2024-12-04 21:58:10.028239400,7.8022392578125,-0.1213246956467628,0.1051872596144676,0.2898311614990234
2024-12-04 21:58:10.038314000,7.81231396484375,-0.0961192026734352,0.1798910498619079,0.103879377245903
2024-12-04 21:58:10.048389000,7.82238916015625,-0.0386352241039276,0.3210677802562713,-0.1138330325484275
2024-12-04 21:58:10.058464300,7.83246435546875,0.0836198404431343,0.5987537503242493,-0.3189952373504638
2024-12-04 21:58:10.068539100,7.8425390625,0.2062173187732696,0.7850617170333862,-0.4288160800933838
2024-12-04 21:58:10.078614300,7.8526142578125,0.251393049955368,0.932416558265686,-0.4797357022762298
2024-12-04 21:58:10.088689200,7.862689208984375,0.2301451563835144,0.9291714429855348,-0.4997566044330597
2024-12-04 21:58:10.098764300,7.872764404296875,0.1864970177412033,0.7771003842353821,-0.4688402414321899
2024-12-04 21:58:10.108839200,7.882839111328125,0.1376600116491317,0.5630658268928528,-0.3961881697177887
2024-12-04 21:58:10.118914000,7.8929140625,0.1445410847663879,0.3424572944641113,-0.2881330847740173
2024-12-04 21:58:10.128989200,7.9029892578125,0.1575314551591873,0.1217422187328338,-0.1695153415203094
2024-12-04 21:58:10.139064300,7.913064208984375,0.1258145421743393,-0.033002883195877,-0.0143992640078067
2024-12-04 21:58:10.149139200,7.92313916015625,0.0400211699306964,-0.0866026058793068,0.1486593931913375
2024-12-04 21:58:10.159214300,7.93321435546875,-0.1053626611828804,-0.0634999498724937,0.2884548306465149
2024-12-04 21:58:10.169289200,7.943289306640625,-0.2295429408550262,-0.1783895194530487,0.3574248552322387
2024-12-04 21:58:10.179364000,7.953364013671875,-0.2351408898830413,-0.5025111436843872,0.3646710515022278
2024-12-04 21:58:10.189439200,7.963439208984375,-0.2577315866947174,-0.705049455165863,0.3065080642700195
2024-12-04 21:58:10.199514000,7.97351416015625,-0.335845023393631,-0.7759624719619751,0.2203952670097351
2024-12-04 21:58:10.209589200,7.98358935546875,-0.3642116785049438,-0.7140587568283081,0.1466836929321289
2024-12-04 21:58:10.219664100,7.9936640625,0.0190723054111003,-0.6412268877029419,0.082209900021553
2024-12-04 21:58:10.229739300,8.0037392578125,0.6892189383506775,-0.464467853307724,0.0355756729841232
2024-12-04 21:58:10.239814400,8.013814453125,0.9345070123672484,-0.0791044384241104,-0.0969821065664291
2024-12-04 21:58:10.249889000,8.023888916015625,0.6844873428344727,0.0331675931811332,-0.2121440917253494
2024-12-04 21:58:10.259964200,8.033964111328125,0.3970885872840881,-0.0929117798805236,-0.1463855952024459
2024-12-04 21:58:10.270039000,8.0440390625,0.1943171918392181,-0.1935334801673889,0.0485271885991096
2024-12-04 21:58:10.280114200,8.0541142578125,0.0564488172531127,-0.2835933268070221,0.2540097832679748
2024-12-04 21:58:10.290189300,8.064189208984375,-0.0238347463309764,-0.441600501537323,0.3671841025352478
2024-12-04 21:58:10.300265200,8.07426513671875,0.019561730325222,-0.6298351287841797,0.3792045414447784
2024-12-04 21:58:10.310340000,8.084340087890626,0.1205682456493377,-0.7017068862915039,0.3882220089435577
2024-12-04 21:58:10.320415200,8.094415283203125,0.1831938028335571,-0.6375023722648621,0.4041615724563598
2024-12-04 21:58:10.330490000,8.104489990234375,0.1848053336143493,-0.5626156330108643,0.3797467052936554
2024-12-04 21:58:10.340565200,8.114565185546875,0.1325328052043914,-0.4986177086830139,0.3160851597785949
2024-12-04 21:58:10.350640400,8.124640380859375,0.0520277395844459,-0.4497063755989074,0.2474014163017273
2024-12-04 21:58:10.360715300,8.13471533203125,-0.0184506885707378,-0.3753637075424194,0.2011678814888
2024-12-04 21:58:10.370790100,8.1447900390625,-0.0461662448942661,-0.2828792631626129,0.1716172397136688
2024-12-04 21:58:10.380866000,8.154865966796875,-0.0482043623924255,-0.1067021042108535,0.1070651412010192
2024-12-04 21:58:10.390941200,8.164941162109375,-0.0313890799880027,0.1262527555227279,0.0160515010356903
2024-12-04 21:58:10.401016000,8.17501611328125,-0.0256643518805503,0.2241255342960357,0.0176613815128803
2024-12-04 21:58:10.411091200,8.18509130859375,-0.0306933782994747,0.3019764721393585,0.0114299412816762
2024-12-04 21:58:10.421166000,8.195166015625,-0.018919276073575,0.3448019623756408,-0.0487324632704257
2024-12-04 21:58:10.431241000,8.205240966796875,0.0293774586170911,0.321032702922821,-0.1000191420316696
2024-12-04 21:58:10.441316000,8.215316162109374,0.0746908783912658,0.2664672136306762,-0.1162476539611816
2024-12-04 21:58:10.451391000,8.225390869140625,0.0764000713825225,0.1698381751775741,-0.0896728411316871
2024-12-04 21:58:10.461466000,8.235466064453124,0.0506742037832737,0.1327147632837295,0.0168354921042919
2024-12-04 21:58:10.471541200,8.245541259765625,0.0353053137660026,0.1374850124120712,0.1168813109397888
2024-12-04 21:58:10.481616100,8.2556162109375,0.0281113162636756,0.1292782127857208,0.1343875974416732
2024-12-04 21:58:10.491691000,8.26569091796875,0.0158099513500928,0.1426261961460113,0.0446786880493164
2024-12-04 21:58:10.501766000,8.275765869140624,-0.0027765168342739,0.0920929759740829,-0.1530873924493789
2024-12-04 21:58:10.511841000,8.285841064453125,-0.0179169811308383,-0.0239836238324642,-0.3970566689968109
2024-12-04 21:58:10.521916200,8.295916259765624,-0.0522880032658577,-0.1331348717212677,-0.6075819730758667
2024-12-04 21:58:10.531991000,8.305990966796875,-0.0880339220166206,-0.1997811049222946,-0.7202584743499756
2024-12-04 21:58:10.542066200,8.316066162109376,-0.1250617057085037,-0.2459374070167541,-0.7436442375183105
2024-12-04 21:58:10.552141000,8.32614111328125,-0.1558827906847,-0.2974500358104706,-0.724062979221344
2024-12-04 21:58:10.562216000,8.3362158203125,-0.1872947812080383,-0.2990055680274963,-0.6765428185462952
2024-12-04 21:58:10.572292000,8.3462919921875,-0.2057966291904449,-0.1763276308774948,-0.6213690042495728
2024-12-04 21:58:10.582367200,8.3563671875,-0.2084430158138275,0.0285799726843833,-0.5992751717567444
2024-12-04 21:58:10.592442000,8.366442138671875,-0.1907097250223159,0.3021577000617981,-0.5997710824012756
2024-12-04 21:58:10.602517200,8.376517333984374,-0.1096521690487861,0.6406720876693726,-0.5937550067901611
2024-12-04 21:58:10.612591900,8.386591796875,0.018784787505865,0.9291683435440063,-0.6007784605026245
2024-12-04 21:58:10.622667000,8.3966669921875,0.1632042825222015,1.0814862251281738,-0.6297603249549866
2024-12-04 21:58:10.632742100,8.4067421875,0.2959331572055816,1.0582891702651978,-0.6535928845405579
2024-12-04 21:58:10.642817000,8.416817138671876,0.3637185990810394,0.8800718784332275,-0.6461312174797058
2024-12-04 21:58:10.652892200,8.42689208984375,0.3782030344009399,0.6223475337028503,-0.5834428668022156
2024-12-04 21:58:10.662967000,8.436967041015626,0.3739790022373199,0.383330762386322,-0.4575994312763214
2024-12-04 21:58:10.673042200,8.447042236328125,0.3908338248729706,0.1895017772912979,-0.3101411461830139
2024-12-04 21:58:10.683117000,8.457116943359376,0.4282573461532593,0.0218757688999176,-0.183081716299057
2024-12-04 21:58:10.693192000,8.46719189453125,0.4642521142959595,-0.0580353774130344,-0.1050475239753723
2024-12-04 21:58:10.703267000,8.47726708984375,0.4878495633602142,-0.0478248223662376,-0.0566546879708766
2024-12-04 21:58:10.713342000,8.487342041015625,0.508240282535553,0.0355438962578773,-0.0417344160377979
2024-12-04 21:58:10.723417000,8.4974169921875,0.5031595230102539,0.1182414442300796,-0.0718097612261772
2024-12-04 21:58:10.733492200,8.5074921875,0.4784128963947296,0.1818779408931732,-0.1070630922913551
2024-12-04 21:58:10.743567000,8.517567138671875,0.4358875453472137,0.2061092406511306,-0.1165316924452781
2024-12-04 21:58:10.753643000,8.52764306640625,0.3619405925273895,0.1978726685047149,-0.0842378661036491
2024-12-04 21:58:10.763718100,8.53771826171875,0.2749111354351043,0.1873731613159179,-0.0182002615183591
2024-12-04 21:58:10.773793000,8.54779296875,0.2074822932481765,0.2054622024297714,0.0514896214008331
2024-12-04 21:58:10.783868200,8.5578681640625,0.1578463017940521,0.2134594172239303,0.089768037199974
2024-12-04 21:58:10.793943000,8.567943115234375,0.1350003331899643,0.2439386695623397,0.1166651472449302
2024-12-04 21:58:10.804018000,8.578017822265625,0.1287291198968887,0.2811342477798462,0.1376183778047561
2024-12-04 21:58:10.814093000,8.588093017578124,0.1261573731899261,0.2894812822341919,0.169916421175003
2024-12-04 21:58:10.824168000,8.59816796875,0.0983622372150421,0.2772003710269928,0.2260377407073974
2024-12-04 21:58:10.834243000,8.6082431640625,0.0587345995008945,0.2505465149879455,0.262577623128891
2024-12-04 21:58:10.844318200,8.618318115234375,0.01152447424829,0.2357883304357528,0.2225132882595062
2024-12-04 21:58:10.854393000,8.62839306640625,-0.0047702356241643,0.1592923551797866,0.2107292860746383
2024-12-04 21:58:10.864468200,8.63846826171875,-0.0329094640910625,0.1127070039510726,0.1884583383798599
2024-12-04 21:58:10.874542800,8.64854296875,-0.0536496043205261,0.1012066155672073,0.1406925022602081
2024-12-04 21:58:10.884618000,8.658617919921875,-0.0661827102303505,0.0633615031838417,0.1138784661889076
2024-12-04 21:58:10.894693000,8.668693115234374,-0.1204336658120155,0.0230173598974943,0.1462995409965515
2024-12-04 21:58:10.904769300,8.678769287109375,-0.0485610701143741,0.116066075861454,0.1935762166976928
2024-12-04 21:58:10.914844200,8.68884423828125,-0.0243140142410993,0.1963600814342498,0.1502968668937683
2024-12-04 21:58:10.924919000,8.6989189453125,-0.015740767121315,0.1170308887958526,0.0867927223443985
2024-12-04 21:58:10.934994000,8.708993896484374,0.0092090163379907,0.0577236711978912,0.0306341834366321
2024-12-04 21:58:10.945069000,8.719069091796875,0.0309808906167745,0.059513583779335,-0.0201000999659299
2024-12-04 21:58:10.955144200,8.729144287109374,0.0321805588901042,0.0636541545391082,-0.011787156574428
2024-12-04 21:58:10.965219000,8.739218994140625,0.0153970522806048,0.0201921667903661,0.0048863627016544
2024-12-04 21:58:10.975294200,8.749294189453124,0.0049485443159937,-0.0465770736336708,0.024850707501173
2024-12-04 21:58:10.985369000,8.759369140625,-0.0016297297552227,-0.1241895854473114,0.0448033772408962
2024-12-04 21:58:10.995444000,8.76944384765625,-0.0217796973884105,-0.1915002316236496,0.0653578490018844
2024-12-04 21:58:11.005519000,8.77951904296875,0.0080612897872924,-0.170939564704895,0.1062842383980751
2024-12-04 21:58:11.015594000,8.789593994140626,0.0688590034842491,-0.1049296259880065,0.1794946640729904
2024-12-04 21:58:11.025670100,8.799670166015625,0.1408272087574005,-0.0519569627940654,0.272716760635376
2024-12-04 21:58:11.035745000,8.8097451171875,0.383389413356781,-0.1706715524196624,0.2683314681053161
2024-12-04 21:58:11.045820000,8.81981982421875,0.7413174510002136,-0.3398203551769256,0.1438015252351761
2024-12-04 21:58:11.055895000,8.82989501953125,1.139820218086243,-0.8211508393287659,0.083281323313713
2024-12-04 21:58:11.065970200,8.83997021484375,1.445549488067627,-1.1293301582336426,0.0919949188828468
2024-12-04 21:58:11.076045000,8.850045166015626,1.5171267986297607,-1.2565749883651731,0.1750503778457641
2024-12-04 21:58:11.086120200,8.8601201171875,1.481825828552246,-1.278420090675354,0.3733408451080322
2024-12-04 21:58:11.096195000,8.870195068359376,1.332266092300415,-1.1467225551605225,0.6175628900527954
2024-12-04 21:58:11.106270000,8.88027001953125,0.8559844493865967,-0.738249659538269,0.7460103631019592
2024-12-04 21:58:11.116345000,8.890344970703126,0.3326424360275268,-0.2335619777441024,0.7121634483337402
2024-12-04 21:58:11.126420000,8.900419921875,0.3044848144054413,-0.1475051194429397,0.5855596661567688
2024-12-04 21:58:11.136495000,8.9104951171875,0.4929077625274658,-0.2491680383682251,0.443330854177475
2024-12-04 21:58:11.146571300,8.9205712890625,0.5318055748939514,-0.4173818230628967,0.3349383473396301
2024-12-04 21:58:11.156646000,8.93064599609375,0.5535198450088501,-0.7995888590812683,0.2797808647155761
2024-12-04 21:58:11.166721000,8.940720947265625,0.9328849911689758,-1.3501468896865845,0.1555116325616836
2024-12-04 21:58:11.176796000,8.9507958984375,0.8705114722251892,-1.7259888648986816,0.164072036743164
2024-12-04 21:58:11.186871000,8.96087109375,0.9002102613449097,-2.3516314029693604,0.2980540692806244
2024-12-04 21:58:11.196946200,8.9709462890625,1.1711682081222534,-3.188678979873657,0.6079807877540588
2024-12-04 21:58:11.207021000,8.98102099609375,1.4460623264312744,-4.037746429443359,0.961989164352417
2024-12-04 21:58:11.217096200,8.99109619140625,1.9820492267608645,-4.975621223449707,1.2876181602478027
2024-12-04 21:58:11.227171000,9.001171142578125,2.349949359893799,-5.7020134925842285,1.6288434267044067
2024-12-04 21:58:11.237246000,9.011245849609375,2.412105321884156,-5.963212966918945,1.732967972755432
2024-12-04 21:58:11.247321000,9.021321044921876,1.541730523109436,-4.920746803283691,1.353111743927002
2024-12-04 21:58:11.257397200,9.031397216796876,1.3163625001907349,-4.026302814483643,0.4249613583087921
2024-12-04 21:58:11.267472100,9.04147216796875,1.846095323562622,-3.477821588516236,-0.5386294722557068
2024-12-04 21:58:11.277547000,9.051547119140626,2.4857876300811768,-3.0718350410461426,-1.4308468103408811
2024-12-04 21:58:11.287622000,9.061621826171876,2.9475486278533936,-2.8474953174591064,-2.085477590560913
2024-12-04 21:58:11.297697000,9.071697021484376,3.263870477676392,-2.9148590564727783,-2.426263332366944
2024-12-04 21:58:11.307772200,9.081772216796876,3.63723087310791,-3.357391357421875,-2.4839026927948
2024-12-04 21:58:11.317847000,9.091846923828124,4.021175384521484,-3.732397079467773,-2.0341336727142334
2024-12-04 21:58:11.327922200,9.101922119140625,4.496988773345947,-4.762213230133057,-1.2134298086166382
2024-12-04 21:58:11.337997000,9.1119970703125,5.053337574005127,-5.801873683929443,-0.263310968875885
2024-12-04 21:58:11.348072000,9.122072021484374,5.4944353103637695,-6.198852062225342,0.6945958733558655
2024-12-04 21:58:11.358147000,9.13214697265625,5.945252895355225,-6.020155429840088,1.3489227294921875
2024-12-04 21:58:11.368223000,9.142222900390625,6.504436016082764,-5.648926734924316,1.5150760412216189
2024-12-04 21:58:11.378298000,9.152298095703124,6.937087059020996,-5.032538890838623,1.4197508096694946
2024-12-04 21:58:11.388373000,9.162373046875,6.914789199829102,-4.306041717529297,1.260198712348938
2024-12-04 21:58:11.398447900,9.17244775390625,6.710497856140137,-3.500767469406128,1.0974578857421875
2024-12-04 21:58:11.408522800,9.182522705078124,6.680798053741455,-3.75490975379944,0.7922004461288452
2024-12-04 21:58:11.418598000,9.192597900390624,6.111129760742188,-3.2096376419067383,0.7768740653991699
2024-12-04 21:58:11.428672800,9.2026728515625,5.295093536376953,-2.437532663345337,0.8486986756324768
2024-12-04 21:58:11.438748000,9.212747802734375,4.436794757843018,-1.8444403409957888,1.1056840419769287
2024-12-04 21:58:11.448823000,9.222822998046874,3.579070806503296,-1.566785454750061,1.5433586835861206
2024-12-04 21:58:11.458898000,9.23289794921875,2.644548892974853,-1.5011541843414309,2.0134308338165283
2024-12-04 21:58:11.468973800,9.242973876953124,1.6012492179870603,-1.4839866161346436,2.395512819290161
2024-12-04 21:58:11.479049000,9.253049072265624,0.5466096997261047,-1.4885070323944092,2.776787519454956
2024-12-04 21:58:11.489123800,9.263123779296874,-0.3656079173088074,-1.5736829042434692,3.030231475830078
2024-12-04 21:58:11.499199000,9.273198974609375,-1.1667548418045044,-1.4405492544174194,1.6294758319854736
2024-12-04 21:58:11.509274000,9.283274169921874,-1.426849603652954,-1.1963465213775637,-2.572185516357422
2024-12-04 21:58:11.519348700,9.2933486328125,-0.9476443529129028,-1.927512288093567,-4.931874752044678
2024-12-04 21:58:11.529424000,9.303423828125,-0.6428130865097046,-2.9191198348999023,-5.108986854553223
2024-12-04 21:58:11.539498800,9.313498779296877,-1.1150290966033936,-3.227097511291504,-4.467268943786621
2024-12-04 21:58:11.549574000,9.323573974609374,-2.0043301582336426,-2.717844247817993,-3.734412908554077
2024-12-04 21:58:11.559649000,9.33364892578125,-2.705848932266236,-2.2093665599823,-2.780691623687744
2024-12-04 21:58:11.569724000,9.343723876953124,-2.8596291542053223,-2.0375473499298096,-1.52209734916687
2024-12-04 21:58:11.579799800,9.3537998046875,-3.1201982498168945,-2.4655940532684326,-0.2690634131431579
2024-12-04 21:58:11.589875000,9.363875,-3.5829524993896484,-3.188432455062866,0.8789737224578857
2024-12-04 21:58:11.599949800,9.37394970703125,-4.013717651367188,-3.996492385864258,1.8712753057479856
2024-12-04 21:58:11.610025000,9.38402490234375,-4.310161590576172,-4.197669506072998,2.4052977561950684
2024-12-04 21:58:11.620099800,9.394099853515623,-4.029192924499512,-4.249771118164063,2.842207193374634
2024-12-04 21:58:11.630175000,9.404175048828124,-3.586409091949463,-3.801528930664064,3.2450146675109863
2024-12-04 21:58:11.640249900,9.414249755859377,-3.1258749961853027,-3.110947608947754,3.625477313995361
2024-12-04 21:58:11.650324700,9.42432470703125,-2.367952585220337,-2.9325268268585205,3.471931934356689
2024-12-04 21:58:11.660399900,9.43439990234375,-1.5617746114730835,-2.674232006072998,2.946314811706543
2024-12-04 21:58:11.670475000,9.44447509765625,-0.9485949277877808,-2.4675633907318115,2.3185923099517822
2024-12-04 21:58:11.680551000,9.454551025390623,-0.5413015484809875,-2.212690830230713,2.104895830154419
2024-12-04 21:58:11.690625800,9.464625732421876,0.2769725024700165,-2.44408655166626,2.379040479660034
2024-12-04 21:58:11.700701000,9.474700927734377,1.219213604927063,-2.7078166007995605,2.8828744888305664
2024-12-04 21:58:11.710775800,9.48477587890625,2.1736762523651123,-2.4224236011505127,3.3769891262054443
2024-12-04 21:58:11.720851000,9.494850830078123,3.0329155921936035,-2.358414888381958,3.4458632469177246
2024-12-04 21:58:11.730925800,9.50492578125,3.57590651512146,-1.1607872247695925,3.107329845428467
2024-12-04 21:58:11.741001000,9.5150009765625,3.909234762191773,0.0906420275568962,2.0349583625793457
2024-12-04 21:58:11.751076000,9.525076171875,4.091828346252441,0.8197399377822876,0.3560793697834015
2024-12-04 21:58:11.761150700,9.535150634765625,4.14923095703125,1.3055455684661863,-1.470218062400818
2024-12-04 21:58:11.771225900,9.545225830078126,4.333835124969482,1.761507511138916,-2.95041823387146
2024-12-04 21:58:11.781300700,9.55530078125,4.445415019989014,2.533774852752685,-3.811028957366944
2024-12-04 21:58:11.791377000,9.565376953125,4.440122127532959,3.465052843093872,-3.979432821273804
2024-12-04 21:58:11.801452000,9.5754521484375,4.69441032409668,4.043004989624023,-2.910902976989746
2024-12-04 21:58:11.811527000,9.58552685546875,5.073966979980469,3.396303653717041,-1.9155391454696653
2024-12-04 21:58:11.821601800,9.595601806640625,5.60170841217041,2.833960771560669,-1.4181413650512695
2024-12-04 21:58:11.831677000,9.605677001953126,6.000946998596191,2.313321113586426,-1.099346399307251
2024-12-04 21:58:11.841751800,9.615751708984376,6.653720378875732,1.5923179388046265,-0.5870445966720581
2024-12-04 21:58:11.851827000,9.625826904296876,7.436145305633545,0.2712102830410003,0.2088634520769119
2024-12-04 21:58:11.861902000,9.635902099609376,8.115583419799805,-1.1099826097488403,1.1722239255905151
2024-12-04 21:58:11.871977000,9.64597705078125,8.549307823181152,-2.556515693664551,2.243319511413574
2024-12-04 21:58:11.882051800,9.6560517578125,8.773813247680664,-3.7794651985168457,3.2113232612609863
2024-12-04 21:58:11.892128000,9.6661279296875,8.649309158325195,-3.94314217567444,3.784223794937134
2024-12-04 21:58:11.902203000,9.676202880859377,8.149531364440918,-3.44903302192688,3.9705944061279297
2024-12-04 21:58:11.912278000,9.686278076171876,7.3523268699646,-2.429797649383545,4.049560070037842
2024-12-04 21:58:11.922353000,9.696352783203125,6.141892433166504,-0.1182271838188171,3.5473742485046387
2024-12-04 21:58:11.932427800,9.706427734375,4.481029510498047,4.2259602546691895,1.4456911087036133
2024-12-04 21:58:11.942503000,9.7165029296875,3.112856388092041,6.432072639465332,-0.0023109251633286
2024-12-04 21:58:11.952577800,9.726577880859375,2.1668472290039062,6.792930603027344,-0.7001606225967407
2024-12-04 21:58:11.962653000,9.73665283203125,1.5259370803833008,6.322027206420898,-0.8538820743560791
2024-12-04 21:58:11.972728000,9.74672802734375,1.1396416425704956,5.147628307342529,-0.853955864906311
2024-12-04 21:58:11.982803000,9.756802978515625,0.855524480342865,3.617861270904541,-0.8283249139785767
2024-12-04 21:58:11.992878000,9.766878173828124,0.5339568257331848,2.1430459022521973,-0.696111798286438
2024-12-04 21:58:12.002952700,9.77695263671875,0.2596389949321747,0.8850986957550049,-0.409951239824295
2024-12-04 21:58:12.013028900,9.78702880859375,0.0978676825761795,-0.2283175885677337,-0.0108115561306476
2024-12-04 21:58:12.023104000,9.79710400390625,0.1813716292381286,-1.2871240377426147,0.4038836359977722
2024-12-04 21:58:12.033179000,9.807178955078124,0.1854313611984253,-2.1501851081848145,0.7100781798362732
2024-12-04 21:58:12.043254000,9.81725390625,0.1238587498664856,-2.974204063415528,0.9096974730491638
2024-12-04 21:58:12.053329000,9.827328857421875,0.1884502619504928,-3.799678087234497,0.9090641736984252
2024-12-04 21:58:12.063403800,9.83740380859375,0.348193347454071,-4.4841132164001465,0.7778421640396118
2024-12-04 21:58:12.073479000,9.84747900390625,0.6417346596717834,-5.111905097961426,0.5731494426727295
2024-12-04 21:58:12.083553800,9.8575537109375,0.8832565546035767,-5.767080783843994,0.4968355894088745
2024-12-04 21:58:12.093629000,9.86762890625,0.7283585667610168,-6.591631412506104,0.6524393558502197
2024-12-04 21:58:12.103704000,9.8777041015625,0.1996557116508484,-7.335228443145752,0.9908444881439208
2024-12-04 21:58:12.113779000,9.887779052734375,-0.568475067615509,-8.063787460327148,0.9639934301376344
2024-12-04 21:58:12.123854800,9.897854736328124,-1.520051121711731,-8.294720649719238,-0.143337532877922
2024-12-04 21:58:12.133930000,9.907929931640624,-2.5331218242645264,-7.661267280578613,-1.8406845331192017
2024-12-04 21:58:12.144004900,9.9180048828125,-3.444988250732422,-6.2006707191467285,-3.455016613006592
2024-12-04 21:58:12.154080000,9.928080078125,-4.133305549621582,-3.485067844390869,-4.288566589355469
2024-12-04 21:58:12.164155000,9.93815478515625,-4.559258460998535,0.2543042600154876,-3.9238600730896
2024-12-04 21:58:12.174229800,9.948229736328123,-4.4789862632751465,3.166952848434448,-3.0480222702026367
2024-12-04 21:58:12.184305000,9.958304931640624,-3.918419122695923,4.527494430541992,-2.278471231460572
2024-12-04 21:58:12.194379800,9.9683798828125,-2.950215578079224,4.212276458740234,-2.023648977279663
2024-12-04 21:58:12.204455000,9.978454833984374,-1.894945740699768,2.353316307067871,-2.4930336475372314
2024-12-04 21:58:12.214530000,9.988530029296877,-1.1219398975372314,-0.1992978006601333,-2.957362413406372
2024-12-04 21:58:12.224605000,9.99860498046875,-0.6993041634559631,-1.9707530736923216,-3.078110933303833
2024-12-04 21:58:12.234680000,10.00868017578125,-0.5188491344451904,-2.685007810592652,-2.858743190765381
2024-12-04 21:58:12.244756000,10.018755859375,-0.521481454372406,-2.467723608016968,-2.6066336631774902
2024-12-04 21:58:12.254830800,10.028830810546877,-0.6781986355781555,-1.538174390792847,-2.513314962387085
2024-12-04 21:58:12.264906000,10.038906005859374,-0.9463772177696228,-0.6848056316375732,-2.5469815731048584
2024-12-04 21:58:12.274980900,10.04898095703125,-1.1227810382843018,-0.4272579550743103,-2.643291473388672
2024-12-04 21:58:12.285056000,10.059055908203124,-1.1652015447616575,-0.8347546458244324,-2.676977634429932
2024-12-04 21:58:12.295131000,10.069130859375,-1.1843997240066528,-1.6961455345153809,-2.555842161178589
2024-12-04 21:58:12.305205800,10.079205810546876,-1.1656144857406616,-2.4751245975494385,-2.424891948699951
2024-12-04 21:58:12.315281000,10.089281005859377,-1.101401686668396,-2.7716095447540283,-2.3679535388946533
2024-12-04 21:58:12.325356000,10.09935595703125,-0.9815122485160828,-2.599644660949707,-2.315171957015991
2024-12-04 21:58:12.335431000,10.109430908203125,-0.8299581408500671,-2.232678174972534,-2.2211222648620605
2024-12-04 21:58:12.345506000,10.119506103515626,-0.7057209610939026,-1.9656224250793457,-2.080289125442505
2024-12-04 21:58:12.355581000,10.129580810546877,-0.6445447206497192,-1.8786263465881348,-1.9258837699890137
2024-12-04 21:58:12.365656800,10.13965673828125,-0.6356331706047058,-1.9391491413116453,-1.8252818584442136
2024-12-04 21:58:12.375732000,10.14973193359375,-0.6532571911811829,-1.9788163900375368,-1.7415608167648315
2024-12-04 21:58:12.385806800,10.159806884765626,-0.6784448623657227,-1.8211575746536253,-1.621506690979004
2024-12-04 21:58:12.395881700,10.1698818359375,-0.7199299931526184,-1.4912347793579102,-1.4624131917953491
2024-12-04 21:58:12.405956900,10.179956787109376,-0.7708300948143005,-1.097538948059082,-1.2748639583587646
2024-12-04 21:58:12.416031500,10.190031494140625,-0.822210967540741,-0.7456232309341431,-1.0800961256027222
2024-12-04 21:58:12.426106600,10.200106689453126,-0.8709856271743774,-0.4636805057525635,-0.8681164383888245
2024-12-04 21:58:12.436181800,10.210181640625,-0.8501362204551697,-0.2022324204444885,-0.6538664102554321
2024-12-04 21:58:12.446256600,10.220256591796876,-0.7602261900901794,-0.0164636000990867,-0.4246993362903595
2024-12-04 21:58:12.456331800,10.230331787109376,-0.6663787364959717,0.1302773803472519,-0.1902966797351837
2024-12-04 21:58:12.466406700,10.24040673828125,-0.594923734664917,0.3408025205135345,0.0669435560703277
2024-12-04 21:58:12.476481800,10.250481689453125,-0.5652174949645996,0.5361273288726807,0.3746662437915802
2024-12-04 21:58:12.486557700,10.2605576171875,-0.5599074959754944,0.6709529757499695,0.6799593567848206
2024-12-04 21:58:12.496632600,10.270632568359376,-0.513308584690094,0.7732657194137573,0.7834516763687134
2024-12-04 21:58:12.506707700,10.280707763671876,-0.3780253529548645,0.7712422609329224,0.5828979015350342
2024-12-04 21:58:12.516782800,10.290782958984376,-0.2728744149208069,0.7663828134536743,0.3869500160217285
2024-12-04 21:58:12.526857700,10.300857666015624,-0.2992347180843353,0.7346152663230896,0.987009584903717
2024-12-04 21:58:12.536932600,10.3109326171875,-0.3919452130794525,1.0572991371154783,1.747348070144653
2024-12-04 21:58:12.547007700,10.3210078125,-0.5069843530654907,1.6701756715774536,2.0136005878448486
2024-12-04 21:58:12.557082600,10.33108251953125,-0.7294278144836426,2.097969055175781,1.9125876426696773
2024-12-04 21:58:12.567157800,10.34115771484375,-0.8878554105758667,2.5408859252929688,1.6747816801071167
2024-12-04 21:58:12.577232600,10.351232666015624,-0.6658475995063782,2.7540266513824463,1.836755633354187
2024-12-04 21:58:12.587307800,10.361307861328124,-0.3999830484390259,2.026465654373169,1.7066054344177246
2024-12-04 21:58:12.597382700,10.371382568359374,-0.2195421457290649,1.5892624855041504,1.7580468654632568
2024-12-04 21:58:12.607458600,10.38145849609375,-0.0359858386218547,1.8883745670318604,1.998407006263733
2024-12-04 21:58:12.617533700,10.39153369140625,0.0781103670597076,1.9094088077545168,2.1928720474243164
2024-12-04 21:58:12.627608800,10.40160888671875,0.0310632344335317,1.6722276210784912,2.1535768508911133
2024-12-04 21:58:12.637683700,10.41168359375,-0.0317783132195472,1.4471702575683594,2.0667178630828857
2024-12-04 21:58:12.647758800,10.4217587890625,-0.0106341652572155,1.345482587814331,2.0429940223693848
2024-12-04 21:58:12.657833500,10.43183349609375,0.0324821472167968,1.2628854513168335,1.908599853515625
2024-12-04 21:58:12.667908600,10.44190869140625,0.0796507224440574,1.1791565418243408,1.7289626598358154
2024-12-04 21:58:12.677983700,10.451983642578124,0.1249628067016601,1.2642221450805664,1.6161106824874878
2024-12-04 21:58:12.688058600,10.46205859375,0.169658824801445,1.4980756044387815,1.5761910676956177
2024-12-04 21:58:12.698133800,10.4721337890625,0.1795673817396164,1.8138773441314693,1.4900087118148804
2024-12-04 21:58:12.708209000,10.482208984375,0.1263531148433685,2.1170763969421387,1.2960439920425415
2024-12-04 21:58:12.718283800,10.49228369140625,0.0370807535946369,2.357907295227051,1.0899020433425903
2024-12-04 21:58:12.728359700,10.502359619140623,-0.056318275630474,2.5331926345825195,0.9371950626373292
2024-12-04 21:58:12.738434800,10.512434814453124,-0.1454508155584335,2.6103765964508057,0.8500156998634338
2024-12-04 21:58:12.748509700,10.522509765625,-0.2093234807252884,2.588756799697876,0.827404260635376
2024-12-04 21:58:12.758584800,10.532584716796874,-0.2550047039985657,2.498607397079468,0.8022528290748596
2024-12-04 21:58:12.768659700,10.54265966796875,-0.2879618108272552,2.39880108833313,0.7009809613227844
2024-12-04 21:58:12.778734600,10.552734619140624,-0.3175559043884277,2.320643663406372,0.5474204421043396
2024-12-04 21:58:12.788809700,10.562809814453123,-0.3205558061599731,2.2933342456817627,0.4386191070079803
2024-12-04 21:58:12.798884600,10.572884521484376,-0.3081337511539459,2.2727720737457275,0.3930143415927887
2024-12-04 21:58:12.808959700,10.582959716796877,-0.2936908006668091,2.2235896587371826,0.3804003298282623
2024-12-04 21:58:12.819034600,10.59303466796875,-0.2667343020439148,2.150024652481079,0.364698588848114
2024-12-04 21:58:12.829109800,10.60310986328125,-0.2436005622148513,2.109678030014038,0.3624586462974548
2024-12-04 21:58:12.839185700,10.613185546875,-0.245252251625061,2.142117500305176,0.358852207660675
2024-12-04 21:58:12.849260800,10.6232607421875,-0.2650127410888672,2.2115769386291504,0.3568194806575775
2024-12-04 21:58:12.859335700,10.633335693359374,-0.2889633476734161,2.229119300842285,0.3528327345848083
2024-12-04 21:58:12.869410800,10.643410888671877,-0.3118612766265869,2.15290904045105,0.3445123434066772
2024-12-04 21:58:12.879485700,10.653485595703126,-0.3588548898696899,2.077842950820923,0.3624559342861175
2024-12-04 21:58:12.889560600,10.663560546875,-0.430400937795639,1.948072075843811,0.4570590853691101
2024-12-04 21:58:12.899635700,10.6736357421875,-0.4818018078804016,1.7904711961746216,0.6161909103393555
2024-12-04 21:58:12.909710600,10.683710693359377,-0.4451951086521148,1.5952807664871216,0.7877657413482666
2024-12-04 21:58:12.919785700,10.69378564453125,-0.3214143216609955,1.4629504680633545,0.963308036327362
2024-12-04 21:58:12.929860600,10.703860595703125,-0.1357110738754272,1.4547072649002075,1.1711890697479248
2024-12-04 21:58:12.939935700,10.713935791015626,0.0671490877866745,1.593146562576294,1.41520357131958
2024-12-04 21:58:12.950011600,10.72401171875,0.3560102880001068,1.771361231803894,1.589409112930298
2024-12-04 21:58:12.960086500,10.73408642578125,0.6664371490478516,1.9364724159240725,1.742854118347168
2024-12-04 21:58:12.970161700,10.74416162109375,0.8631837368011475,2.196604490280152,1.9243041276931765
2024-12-04 21:58:12.980236800,10.75423681640625,0.8137134313583374,2.5529239177703857,2.0490918159484863
2024-12-04 21:58:12.990311700,10.764311767578125,0.6251668930053711,2.591436624526977,2.0411624908447266
2024-12-04 21:58:13.000386800,10.77438671875,0.4066607058048248,1.455132007598877,1.631879806518555
2024-12-04 21:58:13.010461700,10.784461669921876,0.0960989147424697,-0.3004031777381897,0.8119893074035645
2024-12-04 21:58:13.020536600,10.79453662109375,-0.2143106162548065,-1.2514300346374512,-0.1396361738443374
2024-12-04 21:58:13.030611700,10.80461181640625,-0.4426712989807129,-0.6292585134506226,-0.8909397721290588
2024-12-04 21:58:13.040686600,10.8146865234375,-0.6168092489242554,0.8896551728248596,-1.3159533739089966
2024-12-04 21:58:13.050761700,10.82476171875,-0.7825425863265991,1.9714504480361936,-1.4743283987045288
2024-12-04 21:58:13.060837600,10.834837646484376,-0.9745514392852784,2.3100197315216064,-1.4863944053649902
2024-12-04 21:58:13.070912500,10.84491259765625,-1.1903245449066162,2.0056443214416504,-1.3100594282150269
2024-12-04 21:58:13.080987600,10.854987548828126,-1.3239073753356934,1.50013267993927,-0.9695699214935304
2024-12-04 21:58:13.091062800,10.865062744140625,-1.3994157314300537,1.0922824144363403,-0.6322488784790039
2024-12-04 21:58:13.101137700,10.8751376953125,-1.3116366863250732,0.9443860054016112,-0.412677139043808
2024-12-04 21:58:13.111212800,10.885212890625,-1.0497798919677734,0.8967320919036865,-0.2393101751804351
2024-12-04 21:58:13.121287700,10.89528759765625,-0.6917245388031006,0.7359623908996582,-0.0414301231503486
2024-12-04 21:58:13.131362600,10.905362548828125,-0.3314937651157379,0.4517101049423218,0.0937809199094772
2024-12-04 21:58:13.141437700,10.915437744140624,-0.0567756257951259,0.0856780558824539,0.1656220853328704
2024-12-04 21:58:13.151512600,10.9255126953125,0.0720196440815925,-0.3069447875022888,0.1701389849185943
2024-12-04 21:58:13.161587700,10.935587646484375,0.2019715160131454,-0.4826478958129883,0.135496586561203
2024-12-04 21:58:13.171664000,10.945663818359376,0.3505254089832306,-0.4066686630249023,0.1279099881649017
2024-12-04 21:58:13.181738500,10.955738525390624,0.4403040111064911,-0.2224596887826919,0.1585368663072586
2024-12-04 21:58:13.191813600,10.965813720703125,0.4297676980495453,-0.0176385231316089,0.1296248584985733
2024-12-04 21:58:13.201888800,10.975888671875,0.3359746038913727,0.1822974979877472,0.0270577408373355
2024-12-04 21:58:13.211963600,10.985963623046874,0.2501344382762909,0.3985642790794372,-0.0250842478126287
2024-12-04 21:58:13.222038800,10.996038818359375,0.2540418207645416,0.527763843536377,-0.0157983377575874
2024-12-04 21:58:13.232113700,11.00611376953125,0.3105191886425018,0.523032009601593,0.0015175377484411
2024-12-04 21:58:13.242188800,11.016188720703123,0.3764766156673431,0.4685881733894348,0.012241288088262
2024-12-04 21:58:13.252263700,11.026263671875,0.4235439002513885,0.4132966995239258,0.03008583933115
2024-12-04 21:58:13.262338600,11.036338623046875,0.4782694578170776,0.3353606164455414,0.0844920873641967
2024-12-04 21:58:13.272413700,11.04641357421875,0.5413064360618591,0.2236171811819076,0.1456821262836456
2024-12-04 21:58:13.282489900,11.05648974609375,0.5897999405860901,0.1582541465759277,0.16182941198349
2024-12-04 21:58:13.292564700,11.066564697265624,0.6268117427825928,0.1723749339580536,0.1386641412973404
2024-12-04 21:58:13.302639600,11.0766396484375,0.6148338913917542,0.2268557548522949,0.0468950718641281
2024-12-04 21:58:13.312714500,11.086714599609374,0.5433648228645325,0.4163032174110412,-0.1156580448150634
2024-12-04 21:58:13.322789600,11.09678955078125,0.5063117146492004,0.6433440446853638,-0.2542670667171478
2024-12-04 21:58:13.332864800,11.10686474609375,0.4910871088504791,0.7118366360664368,-0.2979179918766022
2024-12-04 21:58:13.342939600,11.116939697265623,0.4216278791427612,0.6478893160820007,-0.1982332170009613
2024-12-04 21:58:13.353014800,11.127014892578124,0.3623852431774139,0.6183112859725952,0.007683522067964
2024-12-04 21:58:13.363090000,11.13708984375,0.355617880821228,0.619059681892395,0.1806497126817703
2024-12-04 21:58:13.373164500,11.14716455078125,0.4344833791255951,0.4914811849594116,0.2940667271614074
2024-12-04 21:58:13.383239700,11.15723974609375,0.5685237050056458,0.0888764783740043,0.3771458864212036
2024-12-04 21:58:13.393314800,11.167314697265626,0.6918568015098572,-0.4413459897041321,0.4577165246009826
2024-12-04 21:58:13.403390000,11.177389892578123,0.7605336308479309,-0.8446436524391174,0.5285385251045227
2024-12-04 21:58:13.413465900,11.1874658203125,0.7533103823661804,-1.0341867208480835,0.611325204372406
2024-12-04 21:58:13.423540700,11.197540771484377,0.6870333552360535,-1.133965015411377,0.6974278688430786
2024-12-04 21:58:13.433616000,11.207615966796874,0.5825701951980591,-1.2624738216400146,0.7309022545814514
2024-12-04 21:58:13.443690800,11.217690673828123,0.4714109301567077,-1.425300359725952,0.6428592205047607
2024-12-04 21:58:13.453766000,11.227765869140624,0.3530097901821136,-1.5646984577178955,0.4201941192150116
2024-12-04 21:58:13.463840800,11.2378408203125,0.230015143752098,-1.622046709060669,0.0718158856034278
2024-12-04 21:58:13.473916000,11.247916015625,0.1531217247247696,-1.536895751953125,-0.3551908135414123
2024-12-04 21:58:13.483990800,11.25799072265625,0.1171144545078277,-1.3187201023101809,-0.8205580115318298
2024-12-04 21:58:13.494065700,11.268065673828126,0.1096930429339408,-1.049889087677002,-1.2779046297073364
2024-12-04 21:58:13.504140800,11.278140869140625,0.0556931942701339,-0.7807045578956604,-1.6730157136917114
2024-12-04 21:58:13.514215700,11.288215576171876,0.0020218482241034,-0.4439980089664459,-2.022007942199707
2024-12-04 21:58:13.524290800,11.298290771484377,-0.0083429086953401,0.0005437606014311,-2.3299691677093506
2024-12-04 21:58:13.534366700,11.30836669921875,-0.0338938720524311,0.4652175307273865,-2.5915260314941406
2024-12-04 21:58:13.544441600,11.318441650390625,-0.1168832927942276,0.8861472010612488,-2.8320138454437256
2024-12-04 21:58:13.554516700,11.328516845703126,-0.2278209328651428,1.1215616464614868,-3.04104995727539
2024-12-04 21:58:13.564591900,11.338591796875,-0.4058103859424591,1.0034937858581543,-3.1542770862579346
2024-12-04 21:58:13.574666800,11.348666748046876,-0.5058403611183167,0.5383987426757812,-3.098984956741333
2024-12-04 21:58:13.584742000,11.358741943359377,-0.3531453311443329,-0.0498658381402492,-2.8611884117126465
2024-12-04 21:58:13.594817000,11.368817138671876,-0.1202526316046714,-0.7526997923851013,-2.4487226009368896
2024-12-04 21:58:13.604892000,11.378891845703125,0.0115109886974096,-1.4783592224121094,-2.0368263721466064
2024-12-04 21:58:13.614966800,11.388966796875,-0.0062980377115309,-1.946660041809082,-1.6518585681915283
2024-12-04 21:58:13.625041700,11.399041748046876,-0.1786064356565475,-1.8555530309677124,-1.3982640504837036
2024-12-04 21:58:13.635116800,11.40911669921875,-0.3921851813793182,-1.4622044563293457,-1.2239248752593994
2024-12-04 21:58:13.645192000,11.41919189453125,-0.6454417109489441,-0.975242555141449,-0.9530269503593444
2024-12-04 21:58:13.655266800,11.429266845703124,-0.9459401965141296,1.0287219285964966,-0.5246175527572632
2024-12-04 21:58:13.665342700,11.4393427734375,-1.3989059925079346,3.254995346069336,-0.3914187252521515
2024-12-04 21:58:13.675417900,11.44941796875,-1.957564234733581,4.402666568756104,-0.7240104675292969
2024-12-04 21:58:13.685492700,11.45949267578125,-2.491358757019043,4.184948921203613,-1.4458553791046145
2024-12-04 21:58:13.695568000,11.46956787109375,-2.839336395263672,2.722555637359619,-2.13430404663086
2024-12-04 21:58:13.705642800,11.479642822265625,-2.823289632797241,0.5277642011642456,-2.1776254177093506
2024-12-04 21:58:13.715718000,11.4897177734375,-2.396231412887573,-1.4773439168930054,-1.6494990587234497
2024-12-04 21:58:13.725792800,11.499792724609376,-1.70818293094635,-2.492861032485962,-0.944056510925293
2024-12-04 21:58:13.735867600,11.50986767578125,-1.0325723886489868,-2.6509032249450684,-0.4749539792537689
2024-12-04 21:58:13.745942800,11.51994287109375,-0.633927583694458,-2.5027565956115723,-0.397086888551712
2024-12-04 21:58:13.756018000,11.530017822265624,-0.4921071529388428,-2.2299792766571045,-0.6261314153671265
2024-12-04 21:58:13.766092800,11.5400927734375,-0.5326820015907288,-1.8976308107376096,-0.8895995616912842
2024-12-04 21:58:13.776168000,11.55016796875,-0.6952624917030334,-1.5029560327529907,-1.0424610376358032
2024-12-04 21:58:13.786242800,11.560242919921874,-0.9368852376937866,-1.07097589969635,-1.0999139547348022
2024-12-04 21:58:13.796317700,11.570317626953123,-1.1630973815917969,-0.7021625638008118,-1.0990737676620483
2024-12-04 21:58:13.806393900,11.580393798828124,-1.286686658859253,-0.4878877997398376,-1.0951035022735596
