time,seconds_elapsed,z,y,x
2024-12-04 21:48:59.967965700,0.141965576171875,2.323550224304199,-6.299251079559326,2.0735433101654053
2024-12-04 21:48:59.978039600,0.15203955078125,3.0096137523651123,-7.45509147644043,2.176656007766724
2024-12-04 21:48:59.988114700,0.16211474609375,3.5879452228546143,-7.889421463012695,2.1326472759246826
2024-12-04 21:48:59.998188500,0.1721884765625,3.8716671466827393,-7.739653587341309,2.0886893272399902
2024-12-04 21:49:00.008263700,0.182263671875,3.5883734226226807,-6.482809543609619,1.9622735977172847
2024-12-04 21:49:00.018337500,0.192337646484375,3.406160354614258,-4.463939666748047,1.720625638961792
2024-12-04 21:49:00.028412700,0.20241259765625,3.983001232147217,-2.794072151184082,1.6507580280303955
2024-12-04 21:49:00.038486500,0.212486572265625,4.814706802368164,-1.9822354316711424,1.975836515426636
2024-12-04 21:49:00.048561700,0.222561767578125,5.278392791748047,-1.92348313331604,2.490999937057495
2024-12-04 21:49:00.058635500,0.232635498046875,5.323106288909912,-2.1317577362060547,3.046144962310791
2024-12-04 21:49:00.068709600,0.242709716796875,4.970953464508057,-1.4918272495269775,3.3961100578308105
2024-12-04 21:49:00.078784500,0.252784423828125,4.62584114074707,0.1876459717750549,3.285720109939575
2024-12-04 21:49:00.088858600,0.262858642578125,4.488292217254639,1.9923404455184937,2.6967642307281494
2024-12-04 21:49:00.098933500,0.27293359375,4.380763053894043,3.065613031387329,1.952003598213196
2024-12-04 21:49:00.109007600,0.283007568359375,4.19591760635376,3.369366407394409,1.341896653175354
2024-12-04 21:49:00.119082500,0.29308251953125,3.8151702880859375,2.951537609100342,1.129780411720276
2024-12-04 21:49:00.129156600,0.303156494140625,3.255909442901612,2.1390316486358643,1.3548673391342163
2024-12-04 21:49:00.139230500,0.31323046875,2.7328996658325195,1.3479708433151243,1.8189163208007808
2024-12-04 21:49:00.149305600,0.3233056640625,2.294924259185791,1.2919938564300537,2.145045280456543
2024-12-04 21:49:00.159379500,0.33337939453125,2.083574056625366,1.7870022058486938,2.208418607711792
2024-12-04 21:49:00.169454600,0.34345458984375,1.9774705171585083,2.3075575828552246,2.016716957092285
2024-12-04 21:49:00.179528400,0.353528564453125,1.911949872970581,2.4886367321014404,1.7058459520339966
2024-12-04 21:49:00.189603600,0.363603515625,1.7533375024795532,2.364584445953369,1.473027229309082
2024-12-04 21:49:00.199677400,0.373677490234375,1.6011509895324707,1.935269474983216,1.428725004196167
2024-12-04 21:49:00.209752600,0.383752685546875,1.491351842880249,1.1742013692855835,1.4795193672180176
2024-12-04 21:49:00.219826400,0.393826416015625,1.4462836980819702,0.2493703961372375,1.6623704433441162
2024-12-04 21:49:00.229900500,0.403900634765625,1.444342851638794,-0.6080073714256287,1.918119430541992
2024-12-04 21:49:00.239975400,0.413975341796875,1.3818140029907229,-1.0196839570999146,2.029757499694824
2024-12-04 21:49:00.250049500,0.424049560546875,1.2598872184753418,-0.9244283437728882,1.8874324560165403
2024-12-04 21:49:00.260124400,0.43412451171875,1.147668480873108,-0.6074314713478088,1.52493417263031
2024-12-04 21:49:00.270198500,0.444198486328125,0.9291734099388124,-0.3738391101360321,1.0442776679992676
2024-12-04 21:49:00.280273400,0.4542734375,0.5539683699607849,-0.23199063539505,0.6926319003105164
2024-12-04 21:49:00.290347500,0.464347412109375,-0.0137825831770896,-0.3082200586795807,0.6335685849189758
2024-12-04 21:49:00.300422400,0.47442236328125,-0.5471410751342773,-1.014424204826355,0.707744836807251
2024-12-04 21:49:00.310496500,0.48449658203125,-0.8830863833427429,-2.5478501319885254,0.7550435066223145
2024-12-04 21:49:00.320570400,0.4945703125,-1.0567331314086914,-4.2332634925842285,0.7134076952934265
2024-12-04 21:49:00.330645500,0.5046455078125,-1.0209007263183594,-5.606755256652832,0.345584362745285
2024-12-04 21:49:00.340719400,0.51471923828125,-0.6521611213684082,-6.898206233978272,-0.260177731513977
2024-12-04 21:49:00.350794500,0.52479443359375,-0.0039748563431203,-7.665285110473633,-0.8996781706809998
2024-12-04 21:49:00.360868400,0.534868408203125,0.6524842381477356,-8.135616302490234,-1.6863631010055542
2024-12-04 21:49:00.370943500,0.544943603515625,0.9163538217544556,-8.207062721252441,-2.2977328300476074
2024-12-04 21:49:00.381017300,0.555017333984375,0.840041995048523,-7.9857892990112305,-2.5112693309783936
2024-12-04 21:49:00.391092500,0.565092529296875,0.5900505185127258,-7.124925136566162,-2.5319318771362305
2024-12-04 21:49:00.401166300,0.575166259765625,0.6507844924926758,-5.348308563232422,-2.3280155658721924
2024-12-04 21:49:00.411240700,0.58524072265625,0.6075197458267212,-3.2815160751342773,-2.6794443130493164
2024-12-04 21:49:00.421315300,0.5953154296875,0.4964134693145752,-1.6372849941253662,-3.3520517349243164
2024-12-04 21:49:00.431389700,0.6053896484375,0.2153282910585403,-0.7710046172142029,-3.883336305618286
2024-12-04 21:49:00.441464300,0.61546435546875,-0.2624531686306,-1.061134934425354,-3.9335992336273193
2024-12-04 21:49:00.451538700,0.62553857421875,-0.8899409174919128,-2.099730491638184,-3.4115798473358154
2024-12-04 21:49:00.461613300,0.63561328125,-1.250802993774414,-3.053478956222534,-2.634583711624145
2024-12-04 21:49:00.471687700,0.645687744140625,-1.3341532945632937,-2.6306889057159424,-2.160821914672852
2024-12-04 21:49:00.481762600,0.655762451171875,-1.4112359285354614,-0.7514262795448303,-2.1695687770843506
2024-12-04 21:49:00.491836700,0.665836669921875,-1.5510624647140503,1.69477641582489,-2.3354625701904297
2024-12-04 21:49:00.501910500,0.67591064453125,-1.5497550964355469,3.697198390960693,-2.474454402923584
2024-12-04 21:49:00.511985700,0.685985595703125,-2.2242674827575684,5.776643753051758,-3.234009265899658
2024-12-04 21:49:00.522059500,0.6960595703125,-3.234278440475464,7.400382995605469,-3.107701063156128
2024-12-04 21:49:00.532134700,0.706134765625,-1.8816330432891848,9.728764533996582,-2.685763359069824
2024-12-04 21:49:00.542208500,0.71620849609375,-0.5594092011451721,10.79999542236328,-2.428696870803833
2024-12-04 21:49:00.552283600,0.72628369140625,0.5144793391227722,11.651162147521973,-2.263785123825073
2024-12-04 21:49:00.562357500,0.736357421875,1.6409653425216677,13.445899963378906,-2.7910425662994385
2024-12-04 21:49:00.572432600,0.7464326171875,2.8479421138763428,14.421209335327148,-3.048129081726074
2024-12-04 21:49:00.582506500,0.756506591796875,3.028709888458252,12.295380592346191,-2.3580145835876465
2024-12-04 21:49:00.592581600,0.76658154296875,2.4482054710388184,9.10618495941162,-0.8043705224990845
2024-12-04 21:49:00.602655700,0.77665576171875,1.6326956748962402,5.643260478973389,0.343060702085495
2024-12-04 21:49:00.612729600,0.7867294921875,-0.0410370230674743,3.4640145301818848,-0.1600281000137329
2024-12-04 21:49:00.622804700,0.7968046875,-0.874160647392273,3.247164487838745,-1.210753321647644
2024-12-04 21:49:00.632878600,0.806878662109375,-0.3646502494812011,3.726465225219727,-2.3496601581573486
2024-12-04 21:49:00.642953700,0.81695361328125,0.4838488399982452,4.205000400543213,-4.27376127243042
2024-12-04 21:49:00.653027600,0.827027587890625,0.0311956722289323,5.044701099395752,-6.477736949920654
2024-12-04 21:49:00.663102700,0.837102783203125,-0.5814868807792664,6.131672382354736,-8.232868194580078
2024-12-04 21:49:00.673176600,0.847176513671875,-0.9654192328453064,6.783810615539551,-9.185589790344238
2024-12-04 21:49:00.683251700,0.857251708984375,-1.2447962760925293,6.824617385864258,-9.701191902160645
2024-12-04 21:49:00.693325600,0.86732568359375,-1.674271583557129,6.280922889709473,-9.595107078552246
2024-12-04 21:49:00.703400700,0.877400634765625,-2.212554216384888,5.51241397857666,-9.179125785827637
2024-12-04 21:49:00.713474600,0.887474609375,-2.871977567672729,4.559008598327637,-8.280970573425293
2024-12-04 21:49:00.723548700,0.897548583984375,-3.4745101928710938,3.876824140548706,-7.043502807617188
2024-12-04 21:49:00.733623600,0.90762353515625,-3.587583065032959,2.6992790699005127,-5.644606590270996
2024-12-04 21:49:00.743697700,0.91769775390625,-3.0978035926818848,1.156316161155701,-3.847968578338623
2024-12-04 21:49:00.753772500,0.9277724609375,-2.5577282905578613,0.1328407078981399,-1.5769426822662354
2024-12-04 21:49:00.763846700,0.9378466796875,-2.0821895599365234,-0.1786694973707199,0.747184693813324
2024-12-04 21:49:00.773921500,0.947921630859375,-1.8116041421890257,-0.7122195959091187,1.8883854150772093
2024-12-04 21:49:00.783995600,0.95799560546875,-1.6209909915924072,-0.915960967540741,2.066348075866699
2024-12-04 21:49:00.794070500,0.968070556640625,-0.8798128962516785,-1.025083065032959,1.373292088508606
2024-12-04 21:49:00.804144600,0.97814453125,0.6091915965080261,-0.9816060662269592,0.4841132760047912
2024-12-04 21:49:00.814219500,0.988219482421875,2.1426944732666016,-1.380368947982788,-0.0592677891254425
2024-12-04 21:49:00.824293600,0.998293701171875,3.3509092330932617,-2.4042394161224365,0.0657516419887542
2024-12-04 21:49:00.834368500,1.008368408203125,4.055424213409424,-3.617101907730103,0.6707347631454468
2024-12-04 21:49:00.844442600,1.018442626953125,4.173843383789063,-4.424681186676025,1.1852835416793823
2024-12-04 21:49:00.854515200,1.02851513671875,3.954670667648315,-4.160604476928711,1.5388206243515017
2024-12-04 21:49:00.864590300,1.03859033203125,3.6854214668273926,-2.5853254795074463,1.821489930152893
2024-12-04 21:49:00.874664200,1.048664306640625,3.556666374206543,-1.3472819328308103,2.2540440559387207
2024-12-04 21:49:00.884739300,1.0587392578125,3.445627450942993,-1.3523792028427124,3.094877958297729
2024-12-04 21:49:00.894813200,1.068813232421875,3.257906198501587,-2.1831610202789307,3.9745147228240967
2024-12-04 21:49:00.904888300,1.078888427734375,3.367205142974853,-2.831151962280273,4.500656127929688
2024-12-04 21:49:00.914962200,1.088962158203125,3.951395511627197,-3.4105544090271,4.500540256500244
2024-12-04 21:49:00.925037300,1.099037353515625,4.693294048309326,-3.4102141857147217,3.774969339370728
2024-12-04 21:49:00.935111400,1.109111328125,4.411828994750977,-2.4743518829345703,2.120067834854126
2024-12-04 21:49:00.945186300,1.119186279296875,3.501170873641968,-1.5932207107543943,0.0911049395799636
2024-12-04 21:49:00.955260400,1.129260498046875,2.514022827148437,-1.4901725053787231,-0.9735098481178284
2024-12-04 21:49:00.965335300,1.139335205078125,1.4741557836532593,-1.9942125082015991,-0.6318010091781616
2024-12-04 21:49:00.975409400,1.149409423828125,-0.1087922379374504,-2.4085326194763184,1.17286479473114
2024-12-04 21:49:00.985484300,1.159484375,-0.7872253060340881,-3.4889307022094727,3.3479487895965576
2024-12-04 21:49:00.995558400,1.169558349609375,-0.6858548521995544,-3.723046541213989,3.430387496948242
2024-12-04 21:49:01.005632500,1.179632568359375,0.3715724050998688,-3.292867660522461,3.178997278213501
2024-12-04 21:49:01.015707400,1.189707275390625,1.718031883239746,-3.212265014648437,2.868572235107422
2024-12-04 21:49:01.025781500,1.199781494140625,2.456787109375,-3.081378698348999,2.8043675422668457
2024-12-04 21:49:01.035856400,1.2098564453125,3.3300397396087646,-4.115753650665283,3.0169057846069336
2024-12-04 21:49:01.045930500,1.219930419921875,3.132869243621826,-4.5627923011779785,2.1774206161499023
2024-12-04 21:49:01.056005400,1.23000537109375,2.712327003479004,-4.168180465698242,1.3169751167297363
2024-12-04 21:49:01.066079500,1.24007958984375,2.3142592906951904,-4.461583614349365,1.0212558507919312
2024-12-04 21:49:01.076154400,1.250154296875,2.249769687652588,-5.580280303955078,1.0714237689971924
2024-12-04 21:49:01.086228500,1.260228515625,2.2479827404022217,-7.491763114929199,1.6476855278015137
2024-12-04 21:49:01.096303400,1.270303466796875,2.329329490661621,-9.96021842956543,2.7549257278442383
2024-12-04 21:49:01.106377500,1.28037744140625,2.367558240890503,-11.952526092529297,4.092219352722168
2024-12-04 21:49:01.116452400,1.290452392578125,2.297156572341919,-12.782427787780762,5.05979061126709
2024-12-04 21:49:01.126526500,1.3005263671875,1.9714220762252808,-12.117300987243652,5.240908145904541
2024-12-04 21:49:01.136601300,1.310601318359375,1.82404887676239,-10.71047592163086,4.820780754089356
2024-12-04 21:49:01.146675500,1.320675537109375,1.7671676874160769,-9.386991500854492,4.616164684295654
2024-12-04 21:49:01.156749600,1.33074951171875,1.342022180557251,-7.224350929260254,4.393878936767578
2024-12-04 21:49:01.166824400,1.340824462890625,0.9494870901107788,-4.558690547943115,4.018571853637695
2024-12-04 21:49:01.176898600,1.350898681640625,0.447407603263855,-2.0668227672576904,3.380810737609864
2024-12-04 21:49:01.186973400,1.360973388671875,-0.4438661336898803,0.5400769114494324,1.7326534986495972
2024-12-04 21:49:01.197047600,1.371047607421875,-1.1247915029525757,3.3857433795928955,-0.3339399397373199
2024-12-04 21:49:01.207122400,1.381122314453125,-1.5902342796325684,5.784918308258057,-1.522963047027588
2024-12-04 21:49:01.217196500,1.391196533203125,-2.260608673095703,6.678082942962647,-2.245283603668213
2024-12-04 21:49:01.227271400,1.401271484375,-3.152190923690796,6.4858598709106445,-2.56712007522583
2024-12-04 21:49:01.237345500,1.411345458984375,-4.162034034729004,5.699029922485352,-2.345127820968628
2024-12-04 21:49:01.247420400,1.42142041015625,-5.093313694000244,4.6207380294799805,-1.768216252326965
2024-12-04 21:49:01.257494500,1.43149462890625,-5.828550815582275,3.711171388626098,-1.1951870918273926
2024-12-04 21:49:01.267569400,1.4415693359375,-6.323827266693115,3.244901180267334,-0.9258328676223756
2024-12-04 21:49:01.277643500,1.4516435546875,-6.63086462020874,3.3192179203033447,-1.07394540309906
2024-12-04 21:49:01.287718400,1.461718505859375,-6.819957733154297,3.9519202709198,-1.5862818956375122
2024-12-04 21:49:01.297792500,1.47179248046875,-6.862545967102051,4.609224796295166,-2.24775505065918
2024-12-04 21:49:01.307867600,1.48186767578125,-6.871755123138428,5.092014312744141,-2.9332098960876465
2024-12-04 21:49:01.317941500,1.49194140625,-7.249453544616699,5.409714221954346,-3.396894931793213
2024-12-04 21:49:01.328015400,1.502015380859375,-7.389161586761475,5.331239223480225,-3.601381778717041
2024-12-04 21:49:01.338090500,1.512090576171875,-7.232467174530029,4.882406711578369,-3.654123306274414
2024-12-04 21:49:01.348164400,1.522164306640625,-6.94884204864502,4.386013507843018,-3.507169485092163
2024-12-04 21:49:01.358239500,1.532239501953125,-6.668186187744141,4.200361728668213,-3.205787181854248
2024-12-04 21:49:01.368313300,1.542313232421875,-6.374393939971924,3.938570976257324,-2.796781539916992
2024-12-04 21:49:01.378388500,1.552388427734375,-5.810911178588867,3.490858554840088,-2.370571613311768
2024-12-04 21:49:01.388462300,1.56246240234375,-5.135292530059815,2.871013641357422,-1.9813042879104608
2024-12-04 21:49:01.398537500,1.572537353515625,-4.551433086395264,2.2291510105133057,-1.6169557571411133
2024-12-04 21:49:01.408611300,1.582611328125,-4.086476802825928,1.7733262777328491,-1.272879958152771
2024-12-04 21:49:01.418686500,1.5926865234375,-3.733978033065796,1.677290439605713,-1.0704103708267212
2024-12-04 21:49:01.428760300,1.60276025390625,-3.50071668624878,1.5878396034240725,-0.9853402376174928
2024-12-04 21:49:01.438835500,1.61283544921875,-3.379862070083618,1.209104299545288,-0.9363226890563964
2024-12-04 21:49:01.448909600,1.62290966796875,-3.347135066986084,0.5517964363098145,-0.8758966326713562
2024-12-04 21:49:01.458984400,1.632984375,-3.216294765472412,-0.3077431917190552,-0.7601545453071594
2024-12-04 21:49:01.469058600,1.64305859375,-2.9988534450531006,-0.9669640064239502,-0.6226469874382019
2024-12-04 21:49:01.479133400,1.653133544921875,-2.660886287689209,-1.0731775760650637,-0.4879224002361297
2024-12-04 21:49:01.489207600,1.66320751953125,-2.298368692398072,0.3059290051460266,-0.1762252449989318
2024-12-04 21:49:01.499282400,1.673282470703125,-1.964999079704285,2.1953675746917725,0.5046413540840149
2024-12-04 21:49:01.509356500,1.6833564453125,-1.6258591413497925,2.860896348953247,1.220049500465393
2024-12-04 21:49:01.519430400,1.693430419921875,-1.3171157836914062,1.5784088373184204,1.7595010995864868
2024-12-04 21:49:01.529505500,1.703505615234375,-1.1442571878433228,-0.3296277821063995,2.091017484664917
2024-12-04 21:49:01.539579400,1.713579345703125,-1.0926779508590698,-1.4214009046554563,2.375518321990967
2024-12-04 21:49:01.549654500,1.723654541015625,-1.1601637601852417,-1.33774733543396,2.649557590484619
2024-12-04 21:49:01.559728400,1.733728271484375,-1.3013395071029663,-0.5689716935157776,2.825040102005005
2024-12-04 21:49:01.569803500,1.743803466796875,-1.3722003698349,0.483009397983551,2.844321727752685
2024-12-04 21:49:01.579877400,1.75387744140625,-1.2507213354110718,1.2849783897399902,2.671234130859375
2024-12-04 21:49:01.589952500,1.763952392578125,-0.9612553715705872,1.3426376581192017,2.12981390953064
2024-12-04 21:49:01.600026400,1.7740263671875,-0.5819639563560486,0.973469853401184,1.346540927886963
2024-12-04 21:49:01.610101500,1.7841015625,-0.1982061862945556,1.105273723602295,0.8176568150520325
2024-12-04 21:49:01.620175400,1.79417529296875,0.1358043998479843,1.3404033184051514,0.5070441961288452
2024-12-04 21:49:01.630250500,1.80425048828125,0.3564973473548889,1.3831886053085327,0.2345961630344391
2024-12-04 21:49:01.640324400,1.814324462890625,0.4599302411079407,1.3677561283111572,-0.0480153188109397
2024-12-04 21:49:01.650399500,1.8243994140625,0.4373053610324859,1.3095263242721558,-0.2960954308509826
2024-12-04 21:49:01.660473300,1.834473388671875,0.3857692778110504,1.3250751495361328,-0.4557864069938659
2024-12-04 21:49:01.670548500,1.844548583984375,0.376536101102829,1.3690946102142334,-0.4875592589378357
2024-12-04 21:49:01.680622300,1.854622314453125,0.3663934171199798,1.297537922859192,-0.3849596679210663
2024-12-04 21:49:01.690697500,1.864697509765625,0.3329933881759643,1.1666547060012815,-0.1506779342889785
2024-12-04 21:49:01.700771300,1.874771240234375,0.2839013636112213,1.0379709005355835,0.1789685040712356
2024-12-04 21:49:01.710846500,1.884846435546875,0.2448050826787948,0.9239236116409302,0.473725825548172
2024-12-04 21:49:01.720920300,1.89492041015625,0.2296425104141235,0.9234222173690796,0.761642575263977
2024-12-04 21:49:01.730995500,1.904995361328125,0.2136121392250061,0.8527166247367859,0.9217782020568848
2024-12-04 21:49:01.741069300,1.9150693359375,0.1769604533910751,0.833482027053833,0.951666295528412
2024-12-04 21:49:01.751143400,1.925143310546875,0.1740727871656417,1.0034834146499634,0.9163013696670532
2024-12-04 21:49:01.761218300,1.93521826171875,0.0845223292708396,1.1220275163650513,0.777778148651123
2024-12-04 21:49:01.771292400,1.94529248046875,0.0082091875374317,1.0721280574798584,0.571416974067688
2024-12-04 21:49:01.781367300,1.9553671875,0.0518441461026668,1.4026976823806765,0.4185664057731628
2024-12-04 21:49:01.791441400,1.96544140625,0.1420169025659561,0.9701657295227052,0.0936266481876373
2024-12-04 21:49:01.801516300,1.975516357421875,0.2367861717939376,-0.2007369846105575,-0.3266072869300842
2024-12-04 21:49:01.811590400,1.98559033203125,0.2231968492269516,-0.716208815574646,-0.5779913663864136
2024-12-04 21:49:01.821665500,1.99566552734375,0.1567171066999435,-0.670507550239563,-0.6141330003738403
2024-12-04 21:49:01.831739400,2.005739501953125,0.0628198981285095,-0.577857255935669,-0.4874922037124634
2024-12-04 21:49:01.841814500,2.015814453125,-0.1336818486452102,-0.40308278799057,-0.2630096673965454
2024-12-04 21:49:01.851888400,2.025888427734375,-0.3840815722942352,-0.2030367851257324,-0.0047467104159295
2024-12-04 21:49:01.861963800,2.0359638671875,-0.6174675226211548,0.0792935416102409,0.1667186617851257
2024-12-04 21:49:01.872038000,2.046037841796875,-0.7411398887634277,0.2578797936439514,0.172688141465187
2024-12-04 21:49:01.882112800,2.05611279296875,-0.7232028245925903,0.1827579140663147,0.0161718055605888
2024-12-04 21:49:01.892187000,2.066186767578125,-0.5846081972122192,0.0221117846667766,-0.1898980140686035
2024-12-04 21:49:01.902261800,2.07626171875,-0.3917287588119507,-0.0691481083631515,-0.3799110352993011
2024-12-04 21:49:01.912336000,2.0863359375,-0.2253666967153549,-0.1612537950277328,-0.5503365397453308
2024-12-04 21:49:01.922410800,2.09641064453125,-0.131844088435173,-0.235274001955986,-0.6685166358947754
2024-12-04 21:49:01.932484900,2.10648486328125,-0.1225051879882812,-0.2097444087266922,-0.6906216740608215
2024-12-04 21:49:01.942558700,2.116558837890625,-0.1783653348684311,-0.0824761539697647,-0.6120288968086243
2024-12-04 21:49:01.952633900,2.1266337890625,-0.242194652557373,0.0717224702239036,-0.4992285966873169
2024-12-04 21:49:01.962707700,2.136707763671875,-0.2638313472270965,0.1920699924230575,-0.3897473514080047
2024-12-04 21:49:01.972782800,2.146782958984375,-0.2152465134859085,0.2808001041412353,-0.2828826904296875
2024-12-04 21:49:01.982856700,2.156856689453125,-0.100087434053421,0.3250333964824676,-0.167391300201416
2024-12-04 21:49:01.992931800,2.166931884765625,0.0035838400945067,0.3383888900279999,-0.0390162914991378
2024-12-04 21:49:02.003005700,2.177005615234375,0.0737156495451927,0.3348737359046936,0.0813063532114029
2024-12-04 21:49:02.013080800,2.187080810546875,0.1141845136880874,0.345484584569931,0.1431686580181121
2024-12-04 21:49:02.023154700,2.19715478515625,0.1200772300362587,0.2897668778896332,0.1213394775986671
2024-12-04 21:49:02.033229800,2.207229736328125,0.1017661318182945,0.2417583465576172,0.0606625489890575
2024-12-04 21:49:02.043303700,2.2173037109375,0.0868242308497428,0.2100401371717453,0.0013052416034042
2024-12-04 21:49:02.053378800,2.22737890625,0.0872820317745208,0.1910941451787948,-0.044866245239973
2024-12-04 21:49:02.063452700,2.23745263671875,0.114071100950241,0.177739605307579,-0.0557733066380023
2024-12-04 21:49:02.073527800,2.24752783203125,0.1659071445465088,0.1289614140987396,-0.0212249178439378
2024-12-04 21:49:02.083601700,2.2576015625,0.2148449122905731,0.0329410098493099,0.0702220946550369
2024-12-04 21:49:02.093676800,2.2676767578125,0.24322010576725,-0.1004340946674346,0.1944748014211654
2024-12-04 21:49:02.103750700,2.277750732421875,0.2510184943675995,-0.2609789967536926,0.3149504363536834
2024-12-04 21:49:02.113825800,2.28782568359375,0.2513452768325805,-0.4180088341236114,0.4271283745765686
2024-12-04 21:49:02.123899600,2.297899658203125,0.2287872731685638,-0.5278886556625366,0.495008647441864
2024-12-04 21:49:02.133974800,2.307974853515625,0.2140418738126754,-0.5581262111663818,0.5174726843833923
2024-12-04 21:49:02.144048600,2.318048583984375,0.2126054018735885,-0.5373497605323792,0.4937266111373901
2024-12-04 21:49:02.154122800,2.328122802734375,0.2050196528434753,-0.4852655529975891,0.3795718252658844
2024-12-04 21:49:02.164197600,2.33819775390625,0.1755610108375549,-0.3671816289424896,0.2160114049911499
2024-12-04 21:49:02.174271700,2.348271728515625,0.1345299631357193,-0.1856677830219268,0.0602274164557457
2024-12-04 21:49:02.184346600,2.3583466796875,0.0852135568857193,-0.0604701526463031,-0.0622157454490661
2024-12-04 21:49:02.194420700,2.368420654296875,0.0437223091721534,-0.0218764189630746,-0.1350785046815872
2024-12-04 21:49:02.204495600,2.37849560546875,0.04494209587574,-0.0546776615083217,-0.1207328662276268
2024-12-04 21:49:02.214569700,2.38856982421875,0.0589497946202755,-0.1430133879184723,-0.0245972778648138
2024-12-04 21:49:02.224644900,2.398644775390625,0.0680806785821914,-0.2518709003925323,0.1214461177587509
2024-12-04 21:49:02.234718700,2.40871875,0.0614025332033634,-0.3351418077945709,0.2670829594135284
2024-12-04 21:49:02.244793900,2.4187939453125,0.0452764667570591,-0.373107761144638,0.3994820415973663
2024-12-04 21:49:02.254867700,2.42886767578125,0.0246311090886592,-0.3030714094638824,0.508118748664856
2024-12-04 21:49:02.264942800,2.43894287109375,0.0086068017408251,-0.1952455043792724,0.5655637979507446
2024-12-04 21:49:02.275016700,2.4490166015625,0.0135762598365545,-0.0982680916786193,0.5680442452430725
2024-12-04 21:49:02.285091800,2.459091796875,0.0260985381901264,-0.0553178004920482,0.4979054033756256
2024-12-04 21:49:02.295165700,2.469165771484375,0.034605473279953,-0.0264166481792926,0.3779073655605316
2024-12-04 21:49:02.305240800,2.47924072265625,0.0338980108499527,0.005758904851973,0.252386212348938
2024-12-04 21:49:02.315314700,2.489314697265625,0.0164063684642314,0.0621713139116764,0.1448200643062591
2024-12-04 21:49:02.325389800,2.499389892578125,-0.0116663891822099,0.0769374892115593,0.0503857024013996
2024-12-04 21:49:02.335463700,2.509463623046875,-0.0338334776461124,0.0605715587735176,-0.0265247914940118
2024-12-04 21:49:02.345537800,2.519537841796875,-0.056398469954729,0.0009547905065119,-0.1001249998807907
2024-12-04 21:49:02.355612700,2.52961279296875,-0.0778891146183013,-0.0884507223963737,-0.1286115050315857
2024-12-04 21:49:02.365686800,2.539686767578125,-0.1214940845966339,-0.1810160428285598,-0.106402575969696
2024-12-04 21:49:02.375761700,2.54976171875,-0.1727498173713684,-0.2281084507703781,-0.0340660624206066
2024-12-04 21:49:02.385835800,2.559835693359375,-0.2083331793546676,-0.2393023818731308,0.0655434280633926
2024-12-04 21:49:02.395910700,2.56991064453125,-0.2341045886278152,-0.2229228764772415,0.1533521115779876
2024-12-04 21:49:02.405984800,2.57998486328125,-0.2339986562728881,-0.1736044138669967,0.1958979219198227
2024-12-04 21:49:02.416059600,2.5900595703125,-0.2199121266603469,-0.1440404057502746,0.1933857649564743
2024-12-04 21:49:02.426133800,2.6001337890625,-0.206825390458107,-0.1746244728565216,0.148392766714096
2024-12-04 21:49:02.436208600,2.610208740234375,-0.2296468168497085,-0.2119263112545013,0.0875715017318725
2024-12-04 21:49:02.446282800,2.62028271484375,-0.2428123205900192,-0.2775703966617584,0.0481159090995788
2024-12-04 21:49:02.456357600,2.630357666015625,-0.2174308001995086,-0.3640336394309997,0.0110652111470699
2024-12-04 21:49:02.466431700,2.640431640625,-0.179076611995697,-0.4500292539596557,-0.051567506045103
2024-12-04 21:49:02.476506600,2.650506591796875,-0.1483567804098129,-0.5272856950759888,-0.1370517909526825
2024-12-04 21:49:02.486580700,2.660580810546875,-0.1350623220205307,-0.5867725014686584,-0.2196594178676605
2024-12-04 21:49:02.496655600,2.670655517578125,-0.124612346291542,-0.6219022274017334,-0.2845886051654815
2024-12-04 21:49:02.506729700,2.680729736328125,-0.1236229836940765,-0.6483913660049438,-0.3301665186882019
2024-12-04 21:49:02.516804600,2.6908046875,-0.1297421306371688,-0.6621596813201904,-0.3444733023643493
2024-12-04 21:49:02.526878700,2.700878662109375,-0.1385686844587326,-0.6485083699226379,-0.3216371238231659
2024-12-04 21:49:02.536952800,2.710952880859375,-0.1542560309171676,-0.5889323949813843,-0.2721680998802185
2024-12-04 21:49:02.547027700,2.72102783203125,-0.1656331866979599,-0.5486949682235718,-0.2215132862329483
2024-12-04 21:49:02.557101800,2.731101806640625,-0.1975959092378616,-0.5415060520172119,-0.1524996012449264
2024-12-04 21:49:02.567176700,2.7411767578125,-0.2765772044658661,-0.54447340965271,-0.0832435116171836
2024-12-04 21:49:02.577250800,2.751250732421875,-0.3768154084682464,-0.4936566054821014,-0.0249738171696662
2024-12-04 21:49:02.587325700,2.76132568359375,-0.4785014986991882,-0.4693144559860229,0.0014258588198572
2024-12-04 21:49:02.597399800,2.77139990234375,-0.5421484112739563,-0.4690388143062591,-0.0541599057614803
2024-12-04 21:49:02.607474700,2.781474609375,-0.5336698889732361,-0.4191079139709472,-0.1147649735212326
2024-12-04 21:49:02.617548800,2.791548828125,-0.4331814050674438,-0.4100968539714813,-0.1618525832891464
2024-12-04 21:49:02.627623700,2.801623779296875,-0.2695210576057434,-0.5911690592765808,-0.187916949391365
2024-12-04 21:49:02.637697800,2.81169775390625,-0.0902327671647071,-0.8619012236595154,-0.1646627634763717
2024-12-04 21:49:02.647772700,2.821772705078125,0.070918932557106,-1.0589652061462402,-0.118258848786354
2024-12-04 21:49:02.657846800,2.8318466796875,0.1771961003541946,-1.1035076379776,-0.0895100235939025
2024-12-04 21:49:02.667921700,2.841921630859375,0.219830185174942,-0.9101142287254332,-0.1225622668862342
2024-12-04 21:49:02.677995800,2.851995849609375,0.2242994904518127,-0.6101325750350952,-0.2189223617315292
2024-12-04 21:49:02.688070700,2.862070556640625,0.2400877475738525,-0.2162063717842102,-0.3806745111942291
2024-12-04 21:49:02.698144800,2.872144775390625,0.2628026604652405,0.2393931001424789,-0.583196222782135
2024-12-04 21:49:02.708219600,2.8822197265625,0.25970458984375,0.7059680223464966,-0.757685661315918
2024-12-04 21:49:02.718293800,2.892293701171875,0.2164889276027679,0.8788452744483948,-0.8753086924552917
2024-12-04 21:49:02.728368600,2.90236865234375,0.1181175112724304,0.8763469457626343,-0.9083889126777648
2024-12-04 21:49:02.738443000,2.912443115234375,-0.029354766011238,0.7730176448822021,-0.8233078718185425
2024-12-04 21:49:02.748516900,2.922516845703125,-0.1789227873086929,0.5701495409011841,-0.6512342095375061
2024-12-04 21:49:02.758592000,2.932592041015625,-0.2738730013370514,0.4023072719573974,-0.4561600685119629
2024-12-04 21:49:02.768665900,2.942665771484375,-0.3320809602737427,0.1873378306627273,-0.2989104688167572
2024-12-04 21:49:02.778741000,2.952740966796875,-0.3551079928874969,0.0209486000239849,-0.1552387624979019
2024-12-04 21:49:02.788814800,2.96281494140625,-0.3633109033107757,-0.0817486643791198,-0.0361866243183612
2024-12-04 21:49:02.798890000,2.972889892578125,-0.3598977923393249,-0.1126280203461647,0.0198292415589094
2024-12-04 21:49:02.808963800,2.9829638671875,-0.3442057073116302,-0.0688942223787307,0.0070032998919487
2024-12-04 21:49:02.819039000,2.9930390625,-0.3219147622585296,0.0140502005815505,-0.0259384047240018
2024-12-04 21:49:02.829112800,3.00311279296875,-0.2749121487140655,0.0793325081467628,-0.043442390859127
2024-12-04 21:49:02.839188000,3.01318798828125,-0.2037466019392013,0.0982526764273643,-0.0034734024666249
2024-12-04 21:49:02.849261800,3.02326171875,-0.1072918176651001,0.058654673397541,0.1074978485703468
2024-12-04 21:49:02.859337200,3.033337158203125,0.0026666428893804,0.0129702761769294,0.2698108553886413
2024-12-04 21:49:02.869411300,3.043411376953125,0.0976298451423645,-0.0048019108362495,0.4209258258342743
2024-12-04 21:49:02.879486200,3.053486328125,0.1275754868984222,0.0388755276799202,0.507733166217804
2024-12-04 21:49:02.889560300,3.063560302734375,0.1021651104092598,0.0183956362307071,0.5749775171279907
2024-12-04 21:49:02.899635200,3.07363525390625,0.0644885674118995,0.0838068723678588,0.6470717191696167
2024-12-04 21:49:02.909709300,3.083709228515625,0.0466900616884231,0.1930247992277145,0.6570823788642883
2024-12-04 21:49:02.919784200,3.0937841796875,0.0352496542036533,0.3234472572803497,0.5365450382232666
2024-12-04 21:49:02.929858300,3.1038583984375,0.0036454224027693,0.4439508318901062,0.3312333822250366
2024-12-04 21:49:02.939932400,3.113932373046875,-0.0484023354947567,0.4859233200550079,0.1374865472316742
2024-12-04 21:49:02.950007300,3.12400732421875,-0.092288427054882,0.5000542998313904,0.0125082368031144
2024-12-04 21:49:02.960081400,3.134081298828125,-0.0604356899857521,0.5344328284263611,-0.0576269067823886
2024-12-04 21:49:02.970156300,3.14415625,0.0181050971150398,0.542340099811554,-0.0567904226481914
2024-12-04 21:49:02.980230400,3.15423046875,0.0815682187676429,0.5079017281532288,0.0103452075272798
2024-12-04 21:49:02.990305300,3.16430517578125,0.0858296751976013,0.4780252277851105,0.0722518116235733
2024-12-04 21:49:03.000379400,3.17437939453125,0.0288673155009746,0.3926682472229004,0.0638950765132904
2024-12-04 21:49:03.010454300,3.184454345703125,-0.0795051231980323,0.2169496715068817,0.0018303929828107
2024-12-04 21:49:03.020528400,3.1945283203125,-0.1780801713466644,0.0994073301553726,-0.0605602785944938
2024-12-04 21:49:03.030603300,3.204603271484375,-0.2472052425146103,0.0129503533244133,-0.0995356291532516
2024-12-04 21:49:03.040677400,3.214677490234375,-0.2788145542144775,-0.0530542321503162,-0.119726113975048
2024-12-04 21:49:03.050752500,3.22475244140625,-0.2931101620197296,-0.0666124299168586,-0.1152228489518165
2024-12-04 21:49:03.060826400,3.234826416015625,-0.2844184041023254,-0.0813905820250511,-0.1199883073568344
2024-12-04 21:49:03.070901500,3.244901611328125,-0.2521614730358124,-0.1249201297760009,-0.1477476954460144
2024-12-04 21:49:03.080975400,3.254975341796875,-0.2005435526371002,-0.1403283774852752,-0.179974615573883
2024-12-04 21:49:03.091050500,3.265050537109375,-0.1387967765331268,-0.1466047614812851,-0.2049134075641632
2024-12-04 21:49:03.101124400,3.275124267578125,-0.085593469440937,-0.1404310166835785,-0.2111782282590866
2024-12-04 21:49:03.111199500,3.285199462890625,-0.0530698522925376,-0.1485376358032226,-0.1784591376781463
2024-12-04 21:49:03.121273300,3.2952734375,-0.0371800996363163,-0.2012578397989273,-0.1344328224658966
2024-12-04 21:49:03.131348500,3.305348388671875,-0.0353694893419742,-0.269143283367157,-0.1103031039237976
2024-12-04 21:49:03.141422300,3.31542236328125,-0.068739429116249,-0.3090046942234039,-0.0965481400489807
2024-12-04 21:49:03.151496200,3.32549609375,-0.1196832656860351,-0.300391674041748,-0.0662798210978508
2024-12-04 21:49:03.161571300,3.3355712890625,-0.1654994934797287,-0.2611510753631592,-0.0161878988146781
2024-12-04 21:49:03.171645400,3.3456455078125,-0.2126116752624511,-0.2597173154354095,0.029359895735979
2024-12-04 21:49:03.181720300,3.35572021484375,-0.2646224200725555,-0.2704320251941681,0.0540599152445793
2024-12-04 21:49:03.191794400,3.36579443359375,-0.2929748594760895,-0.2631220519542694,0.0538444705307483
2024-12-04 21:49:03.201869300,3.375869384765625,-0.2831943929195404,-0.2644459009170532,0.0108701083809137
2024-12-04 21:49:03.211943400,3.385943359375,-0.2628299593925476,-0.2409332394599914,-0.0480415858328342
2024-12-04 21:49:03.222018300,3.396018310546875,-0.236845776438713,-0.2627123296260834,-0.135458767414093
2024-12-04 21:49:03.232092400,3.406092529296875,-0.1651630103588104,-0.6271812319755554,-0.2532724440097809
2024-12-04 21:49:03.242167300,3.416167236328125,-0.0034702441189438,-0.5064330101013184,-0.2225459665060043
2024-12-04 21:49:03.252241400,3.426241455078125,0.1229402869939804,-0.4170591831207275,-0.1632615029811859
2024-12-04 21:49:03.262316300,3.43631640625,0.0891999080777168,-0.5152406096458435,-0.1491792351007461
2024-12-04 21:49:03.272390400,3.446390380859375,-0.0013822577893733,-0.386835366487503,-0.0492083504796028
2024-12-04 21:49:03.282465300,3.45646533203125,-0.0593451596796512,-0.1899667680263519,0.1095261722803115
2024-12-04 21:49:03.292539400,3.466539306640625,-0.075991004705429,-0.2405631393194198,0.2300157994031906
2024-12-04 21:49:03.302614300,3.4766142578125,0.0894544124603271,-0.516568124294281,0.2435073852539062
2024-12-04 21:49:03.312688400,3.4866884765625,0.2845936119556427,-0.6405516862869263,0.2257426232099533
2024-12-04 21:49:03.322763300,3.49676318359375,0.3941549956798553,-0.6365897059440613,0.1574000418186187
2024-12-04 21:49:03.332837400,3.50683740234375,0.4150653481483459,-0.6582548022270203,0.0432371459901332
2024-12-04 21:49:03.342911200,3.5169111328125,0.4150134325027466,-0.769620954990387,-0.0572037100791931
2024-12-04 21:49:03.352986400,3.526986328125,0.4295245707035064,-0.8712831735610962,-0.0684347152709961
2024-12-04 21:49:03.363060200,3.537060302734375,0.4325509965419769,-0.881982684135437,0.026171950623393
2024-12-04 21:49:03.373135400,3.54713525390625,0.3512573838233948,-0.760003924369812,0.1896880567073822
2024-12-04 21:49:03.383209200,3.557209228515625,0.1225576251745224,-0.4698123633861542,0.3522031903266907
2024-12-04 21:49:03.393284400,3.567284423828125,-0.2615340948104858,-0.2634045481681824,0.4342226386070251
2024-12-04 21:49:03.403358200,3.577358154296875,-0.4594623744487762,-0.2778740525245666,0.4249433875083923
2024-12-04 21:49:03.413433300,3.587433349609375,-0.3996609151363373,-0.3862187564373016,0.3434994518756866
2024-12-04 21:49:03.423507200,3.597507080078125,-0.2747011184692383,-0.4477615058422088,0.2436205595731735
2024-12-04 21:49:03.433582300,3.607582275390625,-0.2155424505472183,-0.6419663429260254,0.0625502988696098
2024-12-04 21:49:03.443656200,3.61765625,-0.0839061215519905,-0.5035613179206848,0.085685983300209
2024-12-04 21:49:03.453731300,3.6277314453125,0.1177544519305229,-0.4652043282985687,0.2905194759368896
2024-12-04 21:49:03.463805200,3.63780517578125,0.2798429429531097,-0.9252890944480896,0.5166455507278442
2024-12-04 21:49:03.473880300,3.64788037109375,0.5339489579200745,-1.9445980787277224,0.7338360548019409
2024-12-04 21:49:03.483954200,3.6579541015625,0.7556283473968506,-3.070878744125366,0.9234456419944764
2024-12-04 21:49:03.494029300,3.668029296875,1.0348732471466064,-3.9081106185913086,1.0539709329605105
2024-12-04 21:49:03.504103200,3.678103271484375,1.3859388828277588,-4.470828056335449,1.155764937400818
2024-12-04 21:49:03.514178300,3.68817822265625,1.6456633806228638,-4.725912570953369,1.2469919919967651
2024-12-04 21:49:03.524252200,3.698252197265625,1.7827730178833008,-4.899538993835449,1.299330234527588
2024-12-04 21:49:03.534326300,3.708326171875,1.8393758535385127,-4.928487300872803,1.4518375396728516
2024-12-04 21:49:03.544401200,3.718401123046875,1.7143372297286987,-4.581952095031738,1.7956113815307615
2024-12-04 21:49:03.554475300,3.728475341796875,1.147137999534607,-4.248332977294922,2.057259082794189
2024-12-04 21:49:03.564550400,3.73855029296875,0.4567939043045044,-4.142245292663574,2.3019044399261475
2024-12-04 21:49:03.574624300,3.748624267578125,0.2667848765850067,-4.258316040039063,2.73551607131958
2024-12-04 21:49:03.584699400,3.758699462890625,0.8390232920646667,-4.743532180786133,3.340170860290528
2024-12-04 21:49:03.594773200,3.768773193359375,2.530791044235229,-4.9335713386535645,3.883555412292481
2024-12-04 21:49:03.604848400,3.778848388671875,4.516322612762451,-5.322053909301758,4.836238384246826
2024-12-04 21:49:03.614922200,3.788922119140625,5.929152965545654,-6.355691909790039,6.037578105926514
2024-12-04 21:49:03.624997400,3.798997314453125,6.456764221191406,-6.775996208190918,6.880784034729004
2024-12-04 21:49:03.635071200,3.8090712890625,6.684182167053223,-6.747541427612305,7.162887096405029
2024-12-04 21:49:03.645146400,3.819146484375,6.819240093231201,-6.237155437469482,7.18286657333374
2024-12-04 21:49:03.655220200,3.82922021484375,6.741330623626709,-5.283684253692627,6.971786975860596
2024-12-04 21:49:03.665295400,3.83929541015625,6.615189552307129,-3.942424297332764,6.564629077911377
2024-12-04 21:49:03.675369200,3.849369140625,6.57329797744751,-2.53601336479187,6.012001037597656
2024-12-04 21:49:03.685444400,3.8594443359375,6.5441179275512695,-1.310818433761597,5.417245864868164
2024-12-04 21:49:03.695518200,3.869518310546875,6.32342529296875,-0.3576520383358001,4.882650375366211
2024-12-04 21:49:03.705592300,3.87959228515625,5.732884883880615,0.1673726141452789,4.393552303314209
2024-12-04 21:49:03.715667200,3.889667236328125,4.537064075469971,0.6141560077667236,3.857242345809937
2024-12-04 21:49:03.725741300,3.8997412109375,3.162886619567871,0.9773555397987366,3.3323442935943604
2024-12-04 21:49:03.735816200,3.909816162109375,2.0826165676116943,1.34000825881958,2.892875909805298
2024-12-04 21:49:03.745890300,3.919890380859375,1.41697096824646,1.6494606733322144,2.509909152984619
2024-12-04 21:49:03.755965200,3.929965087890625,1.0091172456741333,1.857582330703736,2.2134435176849365
2024-12-04 21:49:03.766039300,3.940039306640625,0.7358608841896057,2.069988965988159,2.046181917190552
2024-12-04 21:49:03.776114200,3.9501142578125,0.4802145063877105,2.1069369316101074,1.9356162548065183
2024-12-04 21:49:03.786188300,3.960188232421875,0.2464725971221923,1.8158944845199585,1.8313331604003904
2024-12-04 21:49:03.796263200,3.97026318359375,-0.0825315341353416,1.28144633769989,1.6957213878631592
2024-12-04 21:49:03.806337300,3.980337158203125,-0.4970344603061676,0.6532750725746155,1.5316386222839355
2024-12-04 21:49:03.816412200,3.990412109375,-0.790959894657135,-0.1681369394063949,1.2801584005355835
2024-12-04 21:49:03.826486300,4.000486328125,-0.9002232551574707,-1.0435563325881958,0.9050396680831908
2024-12-04 21:49:03.836561200,4.01056103515625,-0.8739724159240723,-1.929253339767456,0.3533368408679962
2024-12-04 21:49:03.846635300,4.02063525390625,-0.9126156568527222,-2.737157106399536,-0.3700365722179413
2024-12-04 21:49:03.856709000,4.030709228515625,-1.5143327713012695,-2.886304378509521,-1.1773414611816406
2024-12-04 21:49:03.866783200,4.040783203125,-2.101489543914795,-2.3394219875335693,-1.87998640537262
2024-12-04 21:49:03.876857000,4.050857177734375,-2.442432641983032,-1.6076514720916748,-2.8075761795043945
2024-12-04 21:49:03.886932200,4.06093212890625,-2.106688976287842,-0.7205708622932434,-4.105472564697266
2024-12-04 21:49:03.897006300,4.07100634765625,-1.4333354234695437,0.6819602847099304,-5.14944314956665
2024-12-04 21:49:03.907081200,4.081081298828125,-0.7964103817939758,2.082385540008545,-6.673959255218506
2024-12-04 21:49:03.917155300,4.0911552734375,-0.0578537881374359,4.2559075355529785,-8.100723266601562
2024-12-04 21:49:03.927230200,4.101230224609375,-0.2802937924861908,6.633824348449707,-9.558428764343262
2024-12-04 21:49:03.937304300,4.11130419921875,-1.3640844821929932,9.066718101501465,-10.146733283996582
2024-12-04 21:49:03.947379200,4.121379150390625,-1.775031566619873,9.692523002624512,-8.487236976623535
2024-12-04 21:49:03.957453300,4.131453369140625,-2.003791332244873,8.666622161865234,-5.123086929321289
2024-12-04 21:49:03.967528200,4.141528076171875,-1.9169203042984009,6.675243854522705,-2.164235591888428
2024-12-04 21:49:03.977602300,4.151602294921875,-1.209679365158081,5.644538402557373,-0.5017211437225342
2024-12-04 21:49:03.987677200,4.16167724609375,-0.6491228342056274,4.927839756011963,-0.08426184207201
2024-12-04 21:49:03.997751300,4.171751220703125,-0.4046410620212555,4.362857818603516,-0.1525191962718963
2024-12-04 21:49:04.007825200,4.1818251953125,-0.334405779838562,4.149518489837647,-0.3971795439720154
2024-12-04 21:49:04.017900300,4.191900390625,-0.4474650621414184,3.988380193710327,-0.7292430996894836
2024-12-04 21:49:04.027974100,4.20197412109375,-0.8995004296302795,4.135232925415039,-0.9793970584869384
2024-12-04 21:49:04.038049300,4.21204931640625,-1.2290040254592896,4.1415324211120605,-1.1535390615463257
2024-12-04 21:49:04.048123100,4.222123046875,-1.456717014312744,3.2999508380889893,-1.1714686155319214
2024-12-04 21:49:04.058198300,4.2321982421875,-1.391753911972046,2.193323373794556,-1.3298704624176023
2024-12-04 21:49:04.068272000,4.242272216796875,-1.0492855310440063,1.499338150024414,-1.607714295387268
2024-12-04 21:49:04.078347300,4.25234716796875,-0.6795741319656372,1.3618725538253784,-1.9131461381912231
2024-12-04 21:49:04.088421000,4.262421142578125,-0.4716984033584595,1.4483296871185305,-2.134937047958374
2024-12-04 21:49:04.098496300,4.272496337890625,-0.4802533686161041,1.8997355699539185,-2.7858920097351074
2024-12-04 21:49:04.108570000,4.282570068359375,-0.8476119637489319,1.937951922416687,-3.4532477855682373
2024-12-04 21:49:04.118645200,4.292645263671875,-1.0443289279937744,1.7823777198791504,-3.590585947036743
2024-12-04 21:49:04.128719000,4.302718994140625,-0.8526159524917603,2.1633188724517822,-4.246192932128906
2024-12-04 21:49:04.138793200,4.312793212890625,-1.3636327981948853,3.064947366714477,-5.712772846221924
2024-12-04 21:49:04.148868000,4.3228681640625,-3.806463479995728,6.2944416999816895,-7.78021240234375
2024-12-04 21:49:04.158942200,4.332942138671875,-2.94728946685791,4.297016620635986,-5.875965118408203
2024-12-04 21:49:04.169017000,4.34301708984375,-2.3013393878936768,3.0730347633361816,-4.188235759735107
2024-12-04 21:49:04.179091200,4.35309130859375,-1.8330050706863403,2.16447377204895,-4.10454797744751
2024-12-04 21:49:04.189166000,4.363166015625,-1.009710669517517,2.766880512237549,-2.783799171447754
2024-12-04 21:49:04.199240200,4.373240234375,-0.8911179900169373,2.9765002727508545,-2.165533304214477
2024-12-04 21:49:04.209315000,4.383315185546875,-1.3698816299438477,2.057145118713379,-2.6792800426483154
2024-12-04 21:49:04.219389200,4.39338916015625,-3.7440571784973145,4.487071990966797,-5.147177219390869
2024-12-04 21:49:04.229464000,4.403464111328125,-3.4012014865875244,4.360085964202881,-6.546792984008789
2024-12-04 21:49:04.239538200,4.4135380859375,-0.545722246170044,3.2905993461608887,-4.430140495300293
2024-12-04 21:49:04.249613000,4.423613037109375,-0.2570454180240631,2.2446060180664062,-1.8565614223480225
2024-12-04 21:49:04.259687200,4.433687255859375,-0.1116215363144874,-0.4939026534557342,-0.365437388420105
2024-12-04 21:49:04.269762300,4.44376220703125,0.1127513796091079,-1.8380157947540283,0.4888170659542084
2024-12-04 21:49:04.279836200,4.453836181640625,0.2358449250459671,-2.9333436489105225,0.4960473477840423
2024-12-04 21:49:04.289910000,4.463909912109375,0.4733642637729645,-3.967174053192138,0.1619521975517273
2024-12-04 21:49:04.299985200,4.473985107421875,0.5954143404960632,-4.703972816467285,-0.1204119846224784
2024-12-04 21:49:04.310059000,4.48405908203125,0.2469924241304397,-5.629215717315674,-1.1561275720596311
2024-12-04 21:49:04.320134100,4.494134033203125,0.8219709396362305,-6.333184242248535,-0.7484384179115295
2024-12-04 21:49:04.330208000,4.5042080078125,-0.209881991147995,-6.990716457366943,-0.3735799193382263
2024-12-04 21:49:04.340283100,4.514283203125,-0.958124041557312,-7.035043716430664,-0.6544980406761169
2024-12-04 21:49:04.350357000,4.52435693359375,-1.500271201133728,-6.503745079040527,-0.5285776853561401
2024-12-04 21:49:04.360432000,4.53443212890625,-1.4196290969848633,-5.54207706451416,0.2173312604427337
2024-12-04 21:49:04.370506000,4.544506103515625,-1.534817814826965,-4.281375885009766,1.1074178218841553
2024-12-04 21:49:04.380581000,4.5545810546875,-1.5827021598815918,-3.121476650238037,1.9453365802764893
2024-12-04 21:49:04.390655000,4.564655029296875,-1.7717825174331665,-2.660386800765991,2.4614975452423096
2024-12-04 21:49:04.400730000,4.574730224609375,-1.9262018203735352,-2.940966844558716,2.995252847671509
2024-12-04 21:49:04.410804200,4.58480419921875,-2.2091221809387207,-3.243321657180786,3.3136913776397705
2024-12-04 21:49:04.420878000,4.594878173828125,-2.4433681964874268,-2.785918474197388,3.139655828475952
2024-12-04 21:49:04.430953200,4.604953125,-2.5843605995178223,-2.07257342338562,2.84699821472168
2024-12-04 21:49:04.441027000,4.615027099609375,-2.514758586883545,-0.528594970703125,2.537338972091675
2024-12-04 21:49:04.451102200,4.625102294921875,-2.1451432704925537,1.5869348049163818,2.059420108795166
2024-12-04 21:49:04.461176000,4.635176025390625,-1.4684842824935913,1.9831750392913816,2.0287094116210938
2024-12-04 21:49:04.471251200,4.645251220703125,-0.5873894691467285,4.089516639709473,1.9760451316833496
2024-12-04 21:49:04.481325000,4.655324951171875,0.3529665470123291,5.266378402709961,1.6868417263031006
2024-12-04 21:49:04.491400200,4.665400146484375,1.1848983764648438,5.882533550262451,1.076741099357605
2024-12-04 21:49:04.501474000,4.67547412109375,1.720821499824524,6.046209812164307,0.4930979907512665
2024-12-04 21:49:04.511549200,4.685549072265625,2.036317586898804,4.942431449890137,0.3743990361690521
2024-12-04 21:49:04.521623000,4.695623046875,2.272658348083496,3.773425817489624,0.3472294509410858
2024-12-04 21:49:04.531698200,4.7056982421875,2.451455593109131,3.226070642471313,0.0311015881597995
2024-12-04 21:49:04.541772000,4.71577197265625,2.610024929046631,3.0995144844055176,-0.5765743851661682
2024-12-04 21:49:04.551846100,4.72584619140625,2.8462300300598145,2.164270639419556,-1.445486307144165
2024-12-04 21:49:04.561921000,4.735921142578125,3.196331262588501,0.0392379015684127,-1.9758219718933103
2024-12-04 21:49:04.571995100,4.7459951171875,3.48980975151062,-1.771813154220581,-2.3186380863189697
2024-12-04 21:49:04.582070000,4.756070068359375,3.4865798950195312,-0.9295667409896852,-2.5333101749420166
2024-12-04 21:49:04.592144100,4.76614404296875,3.0179443359375,2.247852563858032,-1.6357645988464355
2024-12-04 21:49:04.602219000,4.776218994140625,2.406743288040161,3.968209743499756,-0.2369304597377777
2024-12-04 21:49:04.612293000,4.786293212890625,1.6297675371170044,4.776967525482178,1.1381256580352783
2024-12-04 21:49:04.622368000,4.796367919921875,0.719315230846405,4.760641098022461,2.3970558643341064
2024-12-04 21:49:04.632442000,4.806442138671875,0.1359951198101043,3.4847874641418457,3.242437601089477
2024-12-04 21:49:04.642517000,4.81651708984375,-0.1533242017030716,2.0376856327056885,3.671187877655029
2024-12-04 21:49:04.652591000,4.826591064453125,-0.2678808867931366,1.4277931451797483,3.575254440307617
2024-12-04 21:49:04.662666000,4.836666015625,-0.3378691375255584,1.4633573293685913,3.131190776824951
2024-12-04 21:49:04.672740000,4.846739990234375,-0.2931690514087677,1.7194724082946775,2.5808897018432617
2024-12-04 21:49:04.682814200,4.856814208984375,-0.2471722662448883,1.3512643575668335,2.037930011749268
2024-12-04 21:49:04.692889000,4.86688916015625,-0.2840069830417633,-0.4201148152351379,1.3476924896240234
2024-12-04 21:49:04.702963200,4.876963134765625,-0.4423326253890991,-1.4824512004852295,1.4391663074493408
2024-12-04 21:49:04.713038000,4.8870380859375,-0.602096438407898,-2.7853894233703613,1.4709957838058472
2024-12-04 21:49:04.723112200,4.8971123046875,-0.8211391568183899,-3.3777263164520264,1.5461370944976809
2024-12-04 21:49:04.733187000,4.90718701171875,-0.9286163449287416,-3.839606046676636,1.406611680984497
2024-12-04 21:49:04.743261200,4.91726123046875,-1.0910059213638306,-3.610394239425659,1.3714196681976318
2024-12-04 21:49:04.753336000,4.927336181640625,-1.3421475887298584,-2.8635826110839844,1.4534631967544556
2024-12-04 21:49:04.763410200,4.93741015625,-1.6174451112747192,-1.7850475311279297,1.628143548965454
2024-12-04 21:49:04.773485000,4.947485107421875,-1.8381308317184448,-0.7835935354232788,1.8956691026687624
2024-12-04 21:49:04.783559200,4.95755908203125,-1.9189578294754028,-0.3588269054889679,2.241319417953491
2024-12-04 21:49:04.793634300,4.96763427734375,-1.849675536155701,-0.5097972750663757,2.580789089202881
2024-12-04 21:49:04.803708200,4.977708251953125,-1.6807286739349363,-0.8746393918991089,2.751556873321533
2024-12-04 21:49:04.813782300,4.9877822265625,-1.4766274690628052,-1.137719750404358,2.6593587398529053
2024-12-04 21:49:04.823857200,4.997857177734375,-1.277267575263977,-1.2653416395187378,2.3951144218444824
2024-12-04 21:49:04.833931300,5.00793115234375,-1.104735255241394,-1.3468124866485596,2.170151948928833
2024-12-04 21:49:04.844006100,5.018006103515625,-1.0373581647872925,-1.3880478143692017,2.0790140628814697
2024-12-04 21:49:04.854080300,5.028080322265625,-1.0776398181915283,-1.4009535312652588,2.102884292602539
2024-12-04 21:49:04.864155600,5.03815576171875,-1.193358063697815,-1.3370237350463867,2.2045812606811523
2024-12-04 21:49:04.874229500,5.0482294921875,-1.3399420976638794,-1.186439037322998,2.372922420501709
2024-12-04 21:49:04.884304600,5.0583046875,-1.5062856674194336,-1.117416262626648,2.554809093475342
2024-12-04 21:49:04.894378500,5.06837841796875,-1.5998404026031494,-1.2084567546844482,2.683644771575928
2024-12-04 21:49:04.904453600,5.07845361328125,-1.6271878480911257,-1.410951018333435,2.703296661376953
2024-12-04 21:49:04.914527500,5.088527587890625,-1.666582107543945,-1.70706307888031,2.64098858833313
2024-12-04 21:49:04.924601600,5.0986015625,-1.7693506479263306,-1.899396300315857,2.538100004196167
2024-12-04 21:49:04.934676700,5.1086767578125,-1.951892971992493,-1.907498121261597,2.471452713012696
2024-12-04 21:49:04.944750600,5.11875048828125,-2.181943893432617,-1.685582995414734,2.446333885192871
2024-12-04 21:49:04.954825700,5.12882568359375,-2.413752555847168,-1.3942407369613647,2.4571902751922607
2024-12-04 21:49:04.964899600,5.138899658203125,-2.6017537117004395,-1.2469850778579712,2.465441465377808
2024-12-04 21:49:04.974974700,5.148974609375,-2.702227830886841,-1.0889984369277954,2.4660463333129883
2024-12-04 21:49:04.985048600,5.159048583984375,-2.680347919464112,-0.9083301424980164,2.4652419090271
2024-12-04 21:49:04.995123700,5.169123779296875,-2.5884902477264404,-0.8620808720588684,2.4248204231262207
2024-12-04 21:49:05.005197600,5.179197509765625,-2.484757661819458,-0.9987713098526,2.343654155731201
2024-12-04 21:49:05.015272700,5.189272705078125,-2.369140148162842,-1.0094362497329712,2.229048013687134
2024-12-04 21:49:05.025346600,5.1993466796875,-2.2433269023895264,-0.8808638453483582,2.0705392360687256
2024-12-04 21:49:05.035420400,5.20942041015625,-2.11983323097229,-0.7327457070350647,1.8329769372940063
2024-12-04 21:49:05.045495600,5.21949560546875,-2.040154457092285,-0.757535994052887,1.5442813634872437
2024-12-04 21:49:05.055569700,5.229569580078125,-2.039178371429444,-0.7570393085479736,1.3428514003753662
2024-12-04 21:49:05.065644500,5.23964453125,-2.0994997024536133,-0.5957605838775635,1.2846788167953491
2024-12-04 21:49:05.075718700,5.24971875,-2.083631992340088,-0.3978160619735718,1.3262150287628174
2024-12-04 21:49:05.085793500,5.25979345703125,-1.975290298461914,-0.2400116622447967,1.3109861612319946
2024-12-04 21:49:05.095867600,5.26986767578125,-1.7416306734085083,-0.0561904348433017,1.1975072622299194
2024-12-04 21:49:05.105942500,5.279942626953125,-1.50236713886261,-0.0050872764550149,0.9987611174583436
2024-12-04 21:49:05.116016600,5.2900166015625,-1.2677596807479858,-0.0178214460611343,0.7745317220687866
2024-12-04 21:49:05.126091500,5.300091552734375,-1.0531922578811646,0.0156158711761236,0.57896488904953
2024-12-04 21:49:05.136165600,5.31016552734375,-0.7677129507064819,0.0770331621170044,0.4421018660068512
2024-12-04 21:49:05.146239500,5.320239501953125,-0.4671686589717865,0.0147266797721385,0.3179567158222198
2024-12-04 21:49:05.156314600,5.330314697265625,-0.2560662925243377,0.0104033034294843,0.237453892827034
2024-12-04 21:49:05.166388500,5.340388427734375,-0.1320028305053711,0.0896783098578453,0.1889015734195709
2024-12-04 21:49:05.176463600,5.350463623046875,-0.0176344476640224,0.2075889706611633,0.1465804874897003
2024-12-04 21:49:05.186537500,5.360537353515625,0.1102422922849655,0.3175921738147735,0.1005008816719055
2024-12-04 21:49:05.196612600,5.370612548828125,0.2591675817966461,0.4274963140487671,0.0358798094093799
2024-12-04 21:49:05.206686500,5.3806865234375,0.392208844423294,0.4959267675876617,0.0039006636943668
2024-12-04 21:49:05.216761600,5.39076171875,0.4901359379291534,0.5072310566902161,-0.0096763977780938
2024-12-04 21:49:05.226835500,5.40083544921875,0.5823589563369751,0.525024950504303,-0.0551100187003612
2024-12-04 21:49:05.236910600,5.41091064453125,0.6891027092933655,0.5690038800239563,-0.0847848206758499
2024-12-04 21:49:05.246984400,5.420984375,0.7948960065841675,0.5842238664627075,-0.0677719339728355
2024-12-04 21:49:05.257058600,5.43105859375,0.871659517288208,0.5822523236274719,-0.0449784696102142
2024-12-04 21:49:05.267133400,5.441133544921875,0.9487223029136658,0.5990757346153259,-0.0177860800176858
2024-12-04 21:49:05.277207600,5.45120751953125,1.0132203102111816,0.5591171383857727,0.0005130320787429
2024-12-04 21:49:05.287282400,5.461282470703125,1.0627081394195557,0.4585597515106201,0.0226390622556209
2024-12-04 21:49:05.297356500,5.4713564453125,1.068822979927063,0.3911596536636352,0.0895336717367172
2024-12-04 21:49:05.307431400,5.481431396484375,1.0534090995788574,0.4118914008140564,0.1440726965665817
2024-12-04 21:49:05.317505500,5.491505615234375,1.028642177581787,0.4875707328319549,0.1709367930889129
2024-12-04 21:49:05.327580400,5.501580322265625,1.0122888088226318,0.5750817060470581,0.2011882960796356
2024-12-04 21:49:05.337654500,5.511654541015625,1.0219621658325195,0.6692491769790649,0.2505976557731628
2024-12-04 21:49:05.347729400,5.5217294921875,1.0251649618148804,0.6867442727088928,0.2722346484661102
2024-12-04 21:49:05.357803500,5.531803466796875,1.0150731801986694,0.5647019743919373,0.296947717666626
2024-12-04 21:49:05.367877400,5.54187744140625,0.9556513428688048,0.4387810826301574,0.3566310405731201
2024-12-04 21:49:05.377952500,5.551952392578125,0.8512796759605408,0.4270261526107788,0.4048169255256653
2024-12-04 21:49:05.388026400,5.5620263671875,0.728266179561615,0.4412240386009216,0.4040718376636505
2024-12-04 21:49:05.398101500,5.5721015625,0.6319178342819214,0.4482342898845672,0.3648775517940521
2024-12-04 21:49:05.408175400,5.58217529296875,0.5744431018829346,0.4772209227085113,0.3028446137905121
2024-12-04 21:49:05.418250500,5.59225048828125,0.5410023331642151,0.5207641124725342,0.2393692433834076
2024-12-04 21:49:05.428324400,5.602324462890625,0.5000022053718567,0.5672775506973267,0.1828752905130386
2024-12-04 21:49:05.438399500,5.6123994140625,0.4477867186069488,0.6865423917770386,0.1117726266384124
2024-12-04 21:49:05.448473300,5.622473388671875,0.3916638493537903,0.8562846779823303,-0.0216904580593109
2024-12-04 21:49:05.458547700,5.632547607421875,0.3725982904434204,0.9814489483833312,-0.2822365760803222
2024-12-04 21:49:05.468622300,5.642622314453125,0.438535213470459,0.9184096455574036,-0.5709868669509888
2024-12-04 21:49:05.478696700,5.65269677734375,0.5130020380020142,0.7910708785057068,-0.6317905187606812
2024-12-04 21:49:05.488771300,5.662771240234375,0.4970986545085907,0.7114505171775818,-0.4452107846736908
2024-12-04 21:49:05.498845700,5.672845703125,0.4152282774448395,0.5791390538215637,-0.1965298503637313
2024-12-04 21:49:05.508920300,5.68292041015625,0.2786388099193573,0.5315594673156738,-0.0861093029379844
2024-12-04 21:49:05.518994700,5.69299462890625,0.1686635911464691,0.5858304500579834,-0.1656776368618011
2024-12-04 21:49:05.529069300,5.7030693359375,0.1191337257623672,0.710208535194397,-0.3172733783721924
2024-12-04 21:49:05.539143700,5.713143798828125,0.1284089833498001,0.8653797507286072,-0.467665284872055
2024-12-04 21:49:05.549218300,5.72321826171875,0.1868651956319809,0.914865791797638,-0.5302737355232239
2024-12-04 21:49:05.559292700,5.733292724609375,0.2356452494859695,0.8090248703956604,-0.4304403662681579
2024-12-04 21:49:05.569366500,5.743366455078125,0.1389775723218917,0.6849538087844849,-0.2410262376070022
2024-12-04 21:49:05.579441700,5.753441650390625,-0.0699420794844627,0.6937917470932007,-0.0913091823458671
2024-12-04 21:49:05.589515500,5.763515625,-0.2378608584403991,0.7675203680992126,-0.0322991162538528
2024-12-04 21:49:05.599590700,5.773590576171875,-0.3411028385162353,0.91213721036911,0.0241029057651758
2024-12-04 21:49:05.609664500,5.78366455078125,-0.3562960028648376,0.9808716177940368,0.0760590136051178
2024-12-04 21:49:05.619739600,5.79373974609375,-0.3314774632453918,0.9079529047012328,0.0435506030917167
2024-12-04 21:49:05.629813500,5.8038134765625,-0.3012082576751709,0.7709372639656067,-0.0528422445058822
2024-12-04 21:49:05.639888600,5.813888671875,-0.2684204578399658,0.6704903244972229,-0.110719658434391
2024-12-04 21:49:05.649962500,5.82396240234375,-0.2458927482366562,0.5737243890762329,-0.1209035441279411
2024-12-04 21:49:05.660036600,5.83403662109375,-0.2206750065088272,0.4087873697280884,-0.1664313375949859
2024-12-04 21:49:05.670111500,5.844111572265625,-0.2330449670553207,0.2454670071601867,-0.1977115422487259
2024-12-04 21:49:05.680185600,5.854185546875,-0.2715111076831817,0.2007535994052887,-0.2073971927165985
2024-12-04 21:49:05.690260700,5.8642607421875,-0.2969617545604706,0.2115844190120697,-0.240650936961174
2024-12-04 21:49:05.700334600,5.87433447265625,-0.2777941823005676,0.2290768474340438,-0.291966050863266
2024-12-04 21:49:05.710409700,5.88440966796875,-0.1942055821418762,0.2471196800470352,-0.4072917401790619
2024-12-04 21:49:05.720483600,5.894483642578125,-0.0868780612945556,0.2220055311918258,-0.5516102910041809
2024-12-04 21:49:05.730558700,5.904558837890625,-0.0543973557651042,0.3666692674160003,-0.6329570412635803
2024-12-04 21:49:05.740632600,5.914632568359375,-0.0088634248822927,0.7792030572891235,-0.5623502731323242
2024-12-04 21:49:05.750707700,5.924707763671875,0.0465605892241001,0.8635666966438293,-0.3351500928401947
2024-12-04 21:49:05.760781600,5.934781494140625,0.0270308293402194,0.7209890484809875,-0.2112728953361511
2024-12-04 21:49:05.770855400,5.94485546875,-0.0957664623856544,0.6790881752967834,-0.2481339573860168
2024-12-04 21:49:05.780930600,5.9549306640625,-0.1703397780656814,0.3572864830493927,-0.3031066656112671
2024-12-04 21:49:05.791004400,5.96500439453125,-0.1905481964349746,0.0986256897449493,-0.3566235899925232
2024-12-04 21:49:05.801079600,5.97507958984375,-0.1823318153619766,0.1783934980630874,-0.4087581634521484
2024-12-04 21:49:05.811153700,5.985153564453125,-0.1696565300226211,0.2558600008487701,-0.4212161600589752
2024-12-04 21:49:05.821228500,5.995228515625,-0.1680016368627548,0.306230753660202,-0.3527015745639801
2024-12-04 21:49:05.831302700,6.005302734375,-0.2009433805942535,0.3721747696399688,-0.2404629588127136
2024-12-04 21:49:05.841377500,6.01537744140625,-0.2505074739456177,0.4153326153755188,-0.1276410818099975
2024-12-04 21:49:05.851451600,6.02545166015625,-0.3197242617607116,0.4717596769332886,-0.037905104458332
2024-12-04 21:49:05.861526000,6.035526123046875,-0.355446308851242,0.4486780762672424,-0.0223202854394912
2024-12-04 21:49:05.871601200,6.04560107421875,-0.3431161046028137,0.3439570367336273,-0.049223318696022
2024-12-04 21:49:05.881675000,6.055675048828125,-0.3128868341445923,0.2972680926322937,-0.0539482980966568
2024-12-04 21:49:05.891750100,6.065750244140625,-0.2656817138195038,0.234473317861557,-0.0145573057234287
2024-12-04 21:49:05.901824000,6.075823974609375,-0.2245899140834808,0.2798682153224945,0.0178118180483579
2024-12-04 21:49:05.911899100,6.085899169921875,-0.1826905459165573,0.3399331569671631,0.0053750351071357
2024-12-04 21:49:05.921973000,6.095972900390625,-0.1380658149719238,0.4065236151218414,-0.0576097890734672
2024-12-04 21:49:05.932048100,6.106048095703125,-0.1162359863519668,0.4711255729198456,-0.1081732288002967
2024-12-04 21:49:05.942122000,6.1161220703125,-0.0995560809969902,0.5208257436752319,-0.1259165406227111
2024-12-04 21:49:05.952195800,6.12619580078125,-0.0651100128889083,0.5253032445907593,-0.114355057477951
2024-12-04 21:49:05.962271000,6.13627099609375,-0.0213713198900222,0.52554851770401,-0.1132434532046318
2024-12-04 21:49:05.972344800,6.1463447265625,0.0226651094853878,0.5138657093048096,-0.1256376057863235
2024-12-04 21:49:05.982420000,6.156419921875,0.0719461068511009,0.462235540151596,-0.1734139174222946
2024-12-04 21:49:05.992494000,6.166494140625,0.1429738402366638,0.436398446559906,-0.2114979773759842
2024-12-04 21:49:06.002569000,6.17656884765625,0.2132738381624221,0.4614129960536957,-0.2366917431354522
2024-12-04 21:49:06.012643000,6.18664306640625,0.2676546275615692,0.4912733137607574,-0.2479097247123718
2024-12-04 21:49:06.022718000,6.196718017578125,0.2814229130744934,0.4971237480640411,-0.2610974311828613
2024-12-04 21:49:06.032792000,6.2067919921875,0.2510634660720825,0.4528006613254547,-0.3078973591327667
2024-12-04 21:49:06.042866000,6.216865966796875,0.1992673873901367,0.4169028401374817,-0.3784191906452179
2024-12-04 21:49:06.052941000,6.226941162109375,0.1612243056297302,0.3880284130573272,-0.444705069065094
2024-12-04 21:49:06.063015000,6.237014892578125,0.1510166823863983,0.3783417046070099,-0.4762622117996216
2024-12-04 21:49:06.073090000,6.247090087890625,0.1355434954166412,0.4187344908714294,-0.4761953353881836
2024-12-04 21:49:06.083164000,6.257163818359375,0.1149711087346077,0.4118622243404388,-0.4760672450065613
2024-12-04 21:49:06.093239000,6.267239013671875,0.0808566138148307,0.3975872695446014,-0.4551145434379577
2024-12-04 21:49:06.103313000,6.27731298828125,0.0351855307817459,0.3642242550849914,-0.434999942779541
2024-12-04 21:49:06.113388000,6.287387939453125,-0.0092781092971563,0.3485511839389801,-0.44646817445755
2024-12-04 21:49:06.123462000,6.2974619140625,-0.0320784971117973,0.3212545812129974,-0.4692765474319458
2024-12-04 21:49:06.133536000,6.307535888671875,-0.0413231961429119,0.2835403680801391,-0.4923239946365356
2024-12-04 21:49:06.143611000,6.31761083984375,-0.0571572855114936,0.2733282148838043,-0.4983669817447662
2024-12-04 21:49:06.153685000,6.32768505859375,-0.058417122811079,0.300885796546936,-0.4705158174037933
2024-12-04 21:49:06.163759900,6.337759765625,-0.059016864746809,0.3103690445423126,-0.4284130930900574
2024-12-04 21:49:06.173834000,6.347833984375,-0.0669124722480773,0.3068757653236389,-0.366574227809906
2024-12-04 21:49:06.183908900,6.357908935546875,-0.0776101201772689,0.3282281756401062,-0.2873015105724334
2024-12-04 21:49:06.193983000,6.36798291015625,-0.081824243068695,0.3747763633728027,-0.2151522934436798
2024-12-04 21:49:06.204057900,6.378057861328125,-0.0777900889515876,0.4102219641208648,-0.180969551205635
2024-12-04 21:49:06.214132000,6.388132080078125,-0.0415171049535274,0.4684191048145294,-0.1822432428598404
2024-12-04 21:49:06.224206000,6.3982060546875,0.0112028336152434,0.5459032654762268,-0.2215570956468582
2024-12-04 21:49:06.234281000,6.408281005859375,0.0754753574728965,0.5774679780006409,-0.2785615026950836
2024-12-04 21:49:06.244355000,6.41835498046875,0.1370093077421188,0.6155849695205688,-0.3274611532688141
2024-12-04 21:49:06.254430000,6.428429931640625,0.2091757655143737,0.6565707325935364,-0.3562375903129577
2024-12-04 21:49:06.264504000,6.438504150390625,0.286896139383316,0.664880096912384,-0.386701226234436
2024-12-04 21:49:06.274579000,6.448578857421875,0.3757429122924804,0.6733406782150269,-0.4195914268493652
2024-12-04 21:49:06.284653000,6.458653076171875,0.4585951864719391,0.6890988945960999,-0.4377493858337402
2024-12-04 21:49:06.294728000,6.46872802734375,0.5008240938186646,0.7014207243919373,-0.4380954504013061
2024-12-04 21:49:06.304802000,6.478802001953125,0.531498372554779,0.7526791095733643,-0.4420792758464813
2024-12-04 21:49:06.314876200,6.488876220703125,0.5369298458099365,0.801709771156311,-0.4255125522613525
2024-12-04 21:49:06.324951000,6.498950927734375,0.5064350962638855,0.8137155771255493,-0.3855448961257934
2024-12-04 21:49:06.335025200,6.509025146484375,0.4865592122077942,0.8244032859802246,-0.3325911164283752
2024-12-04 21:49:06.345100000,6.51910009765625,0.4779281914234161,0.8156550526618958,-0.2668062448501587
2024-12-04 21:49:06.355174100,6.529174072265625,0.4593949913978576,0.7872905135154724,-0.2175010591745376
2024-12-04 21:49:06.365249000,6.5392490234375,0.4641697704792022,0.7913076281547546,-0.2071160525083542
2024-12-04 21:49:06.375323100,6.5493232421875,0.4843334257602691,0.8198084235191345,-0.2392375618219375
2024-12-04 21:49:06.385397000,6.55939697265625,0.5235921740531921,0.83770352602005,-0.3080134093761444
2024-12-04 21:49:06.395472100,6.56947216796875,0.5855165123939514,0.8642520308494568,-0.3903941512107849
2024-12-04 21:49:06.405546000,6.5795458984375,0.6619910597801208,0.8590559363365173,-0.4582134187221527
2024-12-04 21:49:06.415621000,6.58962109375,0.716423749923706,0.8601871132850647,-0.5242350697517395
2024-12-04 21:49:06.425695000,6.599695068359375,0.7720787525177002,0.8219984769821167,-0.5750281810760498
2024-12-04 21:49:06.435770000,6.60977001953125,0.7974542379379272,0.8123267889022827,-0.6078055500984192
2024-12-04 21:49:06.445844000,6.619843994140625,0.8513762950897217,0.7655574083328247,-0.6013524532318115
2024-12-04 21:49:06.455919000,6.629919189453125,0.8775871396064758,0.6761255264282227,-0.5790132880210876
2024-12-04 21:49:06.465993000,6.639992919921875,0.907907247543335,0.5675785541534424,-0.5613762736320496
2024-12-04 21:49:06.476067000,6.650067138671875,0.9170365333557128,0.5029559135437012,-0.5613973736763
2024-12-04 21:49:06.486142000,6.660141845703125,0.917041838169098,0.4244589805603027,-0.5714196562767029
2024-12-04 21:49:06.496216000,6.670216064453125,0.8853883147239685,0.3801761865615845,-0.6069794297218323
2024-12-04 21:49:06.506291000,6.680291015625,0.8254520297050476,0.3302246034145355,-0.6650912165641785
2024-12-04 21:49:06.516365000,6.690364990234375,0.7799200415611267,0.2548321783542633,-0.7474597692489624
2024-12-04 21:49:06.526440000,6.70043994140625,0.7323160767555237,0.2307100743055343,-0.8484497666358948
2024-12-04 21:49:06.536514000,6.71051416015625,0.7088142037391663,0.1801727414131164,-0.949375867843628
2024-12-04 21:49:06.546589000,6.7205888671875,0.7286765575408936,0.2181118577718734,-1.057207107543945
2024-12-04 21:49:06.556663000,6.7306630859375,0.779096782207489,0.2818726599216461,-1.1667762994766235
2024-12-04 21:49:06.566737000,6.74073681640625,0.8697203993797302,0.3141746819019317,-1.268800139427185
2024-12-04 21:49:06.576812000,6.75081201171875,0.9726531505584716,0.3835304379463196,-1.3815903663635254
2024-12-04 21:49:06.586886000,6.760885986328125,1.0977977514266968,0.4457280337810516,-1.48457670211792
2024-12-04 21:49:06.596961000,6.7709609375,1.203743577003479,0.4578336179256439,-1.6109288930892944
2024-12-04 21:49:06.607035000,6.781034912109375,1.3115047216415403,0.4000052213668823,-1.7336678504943848
2024-12-04 21:49:06.617110000,6.791110107421875,1.388566255569458,0.3105712831020355,-1.8408668041229248
2024-12-04 21:49:06.627183900,6.801183837890625,1.439294695854187,0.2058129161596298,-1.9208362102508545
2024-12-04 21:49:06.637258000,6.811258056640625,1.4483444690704346,0.1535176485776901,-1.9844156503677368
2024-12-04 21:49:06.647332900,6.821332763671875,1.4555176496505735,0.1030880361795425,-1.976118803024292
2024-12-04 21:49:06.657407000,6.831406982421875,1.4678715467453003,0.0849998816847801,-1.9474663734436035
2024-12-04 21:49:06.667481900,6.84148193359375,1.52618145942688,0.0386920422315597,-1.891278982162476
2024-12-04 21:49:06.677556000,6.851555908203125,1.582982897758484,0.0477345176041126,-1.8148314952850344
2024-12-04 21:49:06.687630800,6.861630859375,1.5970242023468018,0.0633957684040069,-1.749016523361206
2024-12-04 21:49:06.697705000,6.871705078125,1.6012879610061646,-0.0355655327439308,-1.773707151412964
2024-12-04 21:49:06.707778800,6.88177880859375,1.605452299118042,-0.0900950953364372,-1.832045555114746
2024-12-04 21:49:06.717854000,6.89185400390625,1.6212691068649292,-0.1578222811222076,-1.921059012413025
2024-12-04 21:49:06.727927800,6.901927734375,1.621891736984253,-0.1917658597230911,-1.982690691947937
2024-12-04 21:49:06.738003000,6.9120029296875,1.5941977500915527,-0.2226985543966293,-2.046026945114136
2024-12-04 21:49:06.748076800,6.922076904296875,1.5794219970703125,-0.2889151275157928,-2.0582194328308105
2024-12-04 21:49:06.758152000,6.93215185546875,1.5303868055343628,-0.2576355338096618,-1.9901337623596191
2024-12-04 21:49:06.768225800,6.942225830078125,1.364102482795715,-0.0275868922472,-1.90159273147583
2024-12-04 21:49:06.778301000,6.952301025390625,1.1488337516784668,0.2893445789813995,-1.7808430194854736
2024-12-04 21:49:06.788374800,6.962374755859375,0.991227924823761,0.4266840517520904,-1.5581287145614624
2024-12-04 21:49:06.798449200,6.97244921875,0.7677351236343384,0.4584917426109314,-1.3174670934677124
2024-12-04 21:49:06.808523800,6.982523681640625,0.5376428365707397,0.4796457886695862,-1.1561304330825806
2024-12-04 21:49:06.818598100,6.99259814453125,0.3340684175491333,0.5824952125549316,-1.0378705263137815
2024-12-04 21:49:06.828672800,7.0026728515625,0.161982923746109,0.7100153565406799,-0.9498004913330078
2024-12-04 21:49:06.838747100,7.0127470703125,0.0128212412819266,0.7997390627861023,-0.8918795585632324
2024-12-04 21:49:06.848821800,7.02282177734375,-0.1278879344463348,0.8009979724884033,-0.837666392326355
2024-12-04 21:49:06.858896100,7.032896240234375,-0.2611131072044372,0.7137565016746521,-0.7705003023147583
2024-12-04 21:49:06.868970200,7.04297021484375,-0.3810738623142242,0.5692970156669617,-0.7089592218399048
2024-12-04 21:49:06.879045000,7.053045166015625,-0.4658785164356231,0.420138955116272,-0.6982651352882385
2024-12-04 21:49:06.889119200,7.063119140625,-0.5099697709083557,0.3018762171268463,-0.7420400381088257
2024-12-04 21:49:06.899194000,7.073194091796875,-0.5659183859825134,0.0856130719184875,-0.779410183429718
2024-12-04 21:49:06.909268200,7.083268310546875,-0.5275603532791138,-0.2633939385414123,-0.7330005764961243
2024-12-04 21:49:06.919343400,7.09334326171875,-0.3927043676376343,-0.8329293131828308,-0.7195414900779724
2024-12-04 21:49:06.929417200,7.103417236328125,-0.229225143790245,-1.6638846397399902,-0.976133108139038
2024-12-04 21:49:06.939491000,7.113490966796875,-0.1481589823961258,-2.311307430267334,-1.3677752017974854
2024-12-04 21:49:06.949566200,7.123566162109375,-0.1102888360619545,-1.982072114944458,-1.3606340885162354
2024-12-04 21:49:06.959640000,7.13364013671875,-0.0718848258256912,-1.157856583595276,-1.0416393280029297
2024-12-04 21:49:06.969715200,7.143715087890625,-0.042519211769104,-0.039106860756874,-0.3653580844402313
2024-12-04 21:49:06.979789000,7.1537890625,0.0668948665261268,0.7939468622207642,0.4177055954933166
2024-12-04 21:49:06.989864200,7.1638642578125,0.1056747511029243,0.90937602519989,0.4269792735576629
2024-12-04 21:49:06.999938000,7.17393798828125,0.1044944673776626,0.789674699306488,-0.0180358067154884
2024-12-04 21:49:07.010012200,7.18401220703125,0.3331361711025238,0.5625422596931458,-0.0841117650270462
2024-12-04 21:49:07.020087000,7.194087158203125,0.4494096338748932,0.1801943480968475,0.1440583765506744
2024-12-04 21:49:07.030161200,7.2041611328125,0.3362684249877929,-0.102585420012474,0.4021583795547485
2024-12-04 21:49:07.040236300,7.214236328125,0.1860413998365402,-0.0023669172078371,0.726509690284729
2024-12-04 21:49:07.050310100,7.22431005859375,-0.0432021804153919,0.0742556899785995,0.6651083827018738
2024-12-04 21:49:07.060385300,7.23438525390625,-0.194861814379692,0.0878358036279678,0.6936995983123779
2024-12-04 21:49:07.070459100,7.244459228515625,-0.2292128503322601,0.4256250262260437,1.167915940284729
2024-12-04 21:49:07.080533000,7.254532958984375,-0.1689572036266327,0.7912909388542175,1.6148943901062012
2024-12-04 21:49:07.090608000,7.264608154296875,-0.053895067423582,0.9272221922874452,1.801119327545166
2024-12-04 21:49:07.100682000,7.274681884765625,0.0490585789084434,0.7568746209144592,1.6800132989883425
2024-12-04 21:49:07.110757000,7.284757080078125,0.0575697720050811,0.2620023190975189,1.282317280769348
2024-12-04 21:49:07.120831000,7.2948310546875,-0.1255035102367401,-0.5261439681053162,0.6151193976402283
2024-12-04 21:49:07.130906000,7.304906005859375,-0.3523337244987488,-2.0716683864593506,-0.4057527780532837
2024-12-04 21:49:07.140980000,7.31497998046875,-0.3953894078731537,-4.545077800750732,-1.8235456943511963
2024-12-04 21:49:07.151054000,7.32505419921875,-0.189812570810318,-7.102358341217041,-3.416307210922241
2024-12-04 21:49:07.161129200,7.335129150390625,0.2529381215572357,-8.293750762939453,-4.177957534790039
2024-12-04 21:49:07.171203000,7.345203125,0.2371932715177536,-6.585462093353272,-3.764736413955689
2024-12-04 21:49:07.181278200,7.3552783203125,-0.1314801424741745,-2.46007776260376,-2.392608880996704
2024-12-04 21:49:07.191352000,7.36535205078125,-0.1926825046539306,1.618877649307251,-0.2508599162101745
2024-12-04 21:49:07.201426000,7.375426025390625,-0.1221261546015739,2.4809319972991943,1.7438082695007324
2024-12-04 21:49:07.211501000,7.3855009765625,-0.1877690851688385,2.1063220500946045,3.1669747829437256
2024-12-04 21:49:07.221575000,7.395574951171875,-0.292549192905426,2.186541080474853,3.854700088500977
2024-12-04 21:49:07.231650000,7.405650146484375,-0.4007345139980316,2.5906152725219727,4.216558933258057
2024-12-04 21:49:07.241724000,7.415723876953125,-1.437610149383545,4.909056663513184,2.4816815853118896
2024-12-04 21:49:07.251799000,7.425799072265625,-1.5069081783294678,0.3643583357334137,0.7762535810470581
2024-12-04 21:49:07.261873000,7.435872802734375,-1.0464290380477903,-2.1848886013031006,0.0905449315905571
2024-12-04 21:49:07.271947300,7.445947265625,-0.8663865923881531,-1.220118522644043,-0.5915294885635376
2024-12-04 21:49:07.282022000,7.45602197265625,-0.7671237587928772,0.2157674133777618,-0.8172913789749146
2024-12-04 21:49:07.292096300,7.46609619140625,-0.8029794692993164,1.4245190620422363,-0.7194612622261047
2024-12-04 21:49:07.302171100,7.476171142578125,-1.244420289993286,2.00186824798584,-0.208339437842369
2024-12-04 21:49:07.312245200,7.486245361328125,-1.9516948461532595,1.934196710586548,0.1275320351123809
2024-12-04 21:49:07.322320100,7.496320068359375,-2.7398247718811035,0.5990718007087708,-0.3554375767707824
2024-12-04 21:49:07.332394200,7.506394287109375,-2.7140896320343018,-0.8706532716751099,-0.9178484678268432
2024-12-04 21:49:07.342468000,7.516468017578125,-1.8760836124420168,-0.6580039262771606,-0.7153299450874329
2024-12-04 21:49:07.352543200,7.526543212890625,-1.6374342441558838,0.1895249933004379,-0.3661849796772003
2024-12-04 21:49:07.362617000,7.5366171875,-1.7181966304779053,-0.0089076608419418,-0.168127492070198
2024-12-04 21:49:07.372692200,7.546692138671875,-2.041044235229492,-0.5681605935096741,-0.0749602690339088
2024-12-04 21:49:07.382766000,7.55676611328125,-2.681887626647949,-0.423887699842453,0.0159010235220193
2024-12-04 21:49:07.392841200,7.56684130859375,-3.1339054107666016,0.5471653342247009,0.2225870937108993
2024-12-04 21:49:07.402915000,7.5769150390625,-2.6395745277404785,1.568840265274048,0.6771413683891296
2024-12-04 21:49:07.412989200,7.5869892578125,-1.802019715309143,1.7861685752868652,1.1456884145736694
2024-12-04 21:49:07.423064300,7.597064208984375,-1.369046926498413,1.3741358518600464,1.2866297960281372
2024-12-04 21:49:07.433138200,7.60713818359375,-0.9617321491241456,1.181309461593628,1.3962010145187378
2024-12-04 21:49:07.443213300,7.61721337890625,-0.2684270143508911,1.1543281078338623,1.590914607048035
2024-12-04 21:49:07.453287200,7.627287109375,0.5125066637992859,0.5780190825462341,1.5668915510177612
2024-12-04 21:49:07.463361000,7.637361083984375,0.8532771468162537,0.2894744575023651,1.7686587572097778
2024-12-04 21:49:07.473436200,7.647436279296875,1.0820248126983645,0.0689258426427841,2.010211944580078
2024-12-04 21:49:07.483510000,7.657510009765625,1.515153884887695,-0.2351171225309372,2.0032958984375
2024-12-04 21:49:07.493585200,7.667585205078125,1.7242966890335083,-0.2956230640411377,1.9206092357635496
2024-12-04 21:49:07.503659000,7.677658935546875,1.871768593788147,-0.1982663124799728,2.059498071670532
2024-12-04 21:49:07.513734100,7.687734130859375,1.942373752593994,-0.2283666878938675,2.1709883213043213
2024-12-04 21:49:07.523808000,7.69780810546875,1.8820513486862185,-0.3741569817066192,2.2251901626586914
2024-12-04 21:49:07.533882000,7.707882080078125,1.9164899587631223,-0.7222185134887695,2.274746417999268
2024-12-04 21:49:07.543957200,7.717957275390625,2.066171884536743,-1.113886833190918,2.3256711959838867
2024-12-04 21:49:07.554031000,7.728031005859375,2.251035213470459,-1.455942988395691,2.3093416690826416
2024-12-04 21:49:07.564106200,7.738106201171875,2.4049904346466064,-1.559321641921997,2.3022894859313965
2024-12-04 21:49:07.574180000,7.74818017578125,2.426250696182251,-1.4519487619400024,2.246892213821411
2024-12-04 21:49:07.584255200,7.758255126953125,2.3497567176818848,-1.1867958307266235,2.1987175941467285
2024-12-04 21:49:07.594329000,7.7683291015625,2.3265602588653564,-0.8934075236320496,2.245558500289917
2024-12-04 21:49:07.604403000,7.77840283203125,2.2705719470977783,-0.8392235040664673,2.2834858894348145
2024-12-04 21:49:07.614478000,7.78847802734375,2.134662628173828,-0.9967138171195984,2.24929428100586
2024-12-04 21:49:07.624552000,7.798552001953125,2.048527717590332,-1.2775276899337769,2.247105121612549
2024-12-04 21:49:07.634627000,7.808626953125,2.089818239212036,-1.4209644794464111,2.231961727142334
2024-12-04 21:49:07.644701000,7.818700927734375,2.139160394668579,-1.21614408493042,2.1846420764923096
2024-12-04 21:49:07.654775000,7.828775146484375,2.275860071182251,-0.9510854482650756,2.124424934387207
2024-12-04 21:49:07.664850200,7.83885009765625,2.118431329727173,-0.5733014941215515,1.882205843925476
2024-12-04 21:49:07.674924000,7.848924072265625,1.7387773990631104,-0.3409646451473236,1.7470858097076416
2024-12-04 21:49:07.684999200,7.858999267578125,1.6521668434143066,-0.45485520362854,1.6446651220321655
2024-12-04 21:49:07.695073000,7.869072998046875,1.6930698156356812,-0.5050778985023499,1.472406029701233
2024-12-04 21:49:07.705148200,7.879148193359375,1.5166200399398804,-0.4619935154914856,1.2815793752670288
2024-12-04 21:49:07.715222000,7.889221923828125,1.264914870262146,-0.4733593761920929,1.088403582572937
2024-12-04 21:49:07.725296000,7.899296142578125,1.1805658340454102,-0.383942574262619,0.955106258392334
2024-12-04 21:49:07.735371000,7.90937109375,1.3491973876953125,-0.4349722266197204,0.9673855304718018
2024-12-04 21:49:07.745445000,7.919445068359375,1.4588009119033811,-0.1955674141645431,0.8608981370925903
2024-12-04 21:49:07.755520000,7.92952001953125,1.6149228811264038,0.0303520001471042,0.7831225991249084
2024-12-04 21:49:07.765594000,7.939593994140625,1.9420700073242188,-0.0306444615125656,0.8714898824691772
2024-12-04 21:49:07.775668200,7.949668212890625,2.0316145420074463,-0.5275921821594238,1.0020790100097656
2024-12-04 21:49:07.785743000,7.9597431640625,1.964720606803894,-1.2869386672973633,1.1970893144607544
2024-12-04 21:49:07.795817200,7.969817138671875,2.0314817428588867,-1.897416949272156,1.4156136512756348
2024-12-04 21:49:07.805892400,7.979892333984375,2.0945677757263184,-2.1463303565979004,1.4790173768997192
2024-12-04 21:49:07.815966200,7.98996630859375,2.1714773178100586,-2.0281307697296143,1.5835331678390503
2024-12-04 21:49:07.826040000,8.0000400390625,2.32618260383606,-1.973053216934204,1.771641731262207
2024-12-04 21:49:07.836115200,8.010115234375,2.630299091339112,-2.2187061309814453,1.90344500541687
2024-12-04 21:49:07.846189000,8.02018896484375,2.761995792388916,-1.8260819911956787,1.7384514808654783
2024-12-04 21:49:07.856264200,8.03026416015625,2.683675765991211,-1.5025757551193235,1.4781091213226318
2024-12-04 21:49:07.866338800,8.0403388671875,2.5402894020080566,-1.1622403860092163,1.2443705797195437
2024-12-04 21:49:07.876413700,8.05041357421875,2.5615100860595703,-1.0303353071212769,1.2134650945663452
2024-12-04 21:49:07.886487800,8.06048779296875,2.697930335998535,-1.4847311973571775,1.4156831502914429
2024-12-04 21:49:07.896561700,8.070561767578125,2.669031858444214,-1.7310762405395508,1.2872881889343262
2024-12-04 21:49:07.906636800,8.08063671875,2.797098398208618,-1.6323740482330322,0.9049973487854004
2024-12-04 21:49:07.916710700,8.090710693359375,2.937529802322388,-1.1510154008865356,0.2320668548345565
2024-12-04 21:49:07.926785800,8.100785888671876,3.19651198387146,-0.5328487157821655,-0.5759122371673584
2024-12-04 21:49:07.936859600,8.110859619140625,3.532281875610352,-0.0461754575371742,-1.3018406629562378
2024-12-04 21:49:07.946933800,8.120933837890625,3.9115283489227295,0.4311699867248535,-1.888779878616333
2024-12-04 21:49:07.957008600,8.131008544921874,4.3266801834106445,0.4245709180831909,-2.3423964977264404
2024-12-04 21:49:07.967082800,8.141082763671875,4.661027908325195,-0.1118666604161262,-2.4865572452545166
2024-12-04 21:49:07.977157600,8.15115771484375,5.053321838378906,-0.9045928120613098,-2.4344186782836914
2024-12-04 21:49:07.987231700,8.161231689453125,5.143101215362549,-1.798917293548584,-2.3329336643218994
2024-12-04 21:49:07.997305600,8.1713056640625,5.146275520324707,-2.432726621627808,-2.139251232147217
2024-12-04 21:49:08.007380700,8.181380615234374,5.131948947906494,-2.142853260040283,-1.6133854389190674
2024-12-04 21:49:08.017454600,8.19145458984375,4.715776443481445,-1.5099552869796753,-0.8761520981788635
2024-12-04 21:49:08.027529700,8.20152978515625,3.8468174934387207,-1.3491976261138916,-0.2619339227676391
2024-12-04 21:49:08.037603600,8.211603515625,2.756891250610352,-1.3650915622711182,0.2146352678537368
2024-12-04 21:49:08.047677700,8.221677734375,1.593191623687744,-1.2849462032318115,0.4526273310184479
2024-12-04 21:49:08.057752600,8.231752685546875,0.4516206383705139,-0.9497295618057252,0.4197354316711426
2024-12-04 21:49:08.067826700,8.24182666015625,-0.4755230545997619,-0.2865782976150512,0.1434885412454605
2024-12-04 21:49:08.077901600,8.251901611328124,-1.471476912498474,0.0302047152072191,-0.4149891138076782
2024-12-04 21:49:08.087975700,8.2619755859375,-2.773831605911255,0.0740757137537002,-1.1062408685684204
2024-12-04 21:49:08.098050600,8.272050537109376,-3.89072847366333,0.2892719209194183,-1.6990422010421753
2024-12-04 21:49:08.108124700,8.282124755859375,-4.5276055335998535,0.6020429134368896,-2.073824167251587
2024-12-04 21:49:08.118198500,8.292198486328125,-4.944169521331787,0.9053482413291932,-2.257167339324951
2024-12-04 21:49:08.128273700,8.302273681640624,-5.266805171966553,1.1436359882354736,-2.3275017738342285
2024-12-04 21:49:08.138347500,8.312347412109375,-5.661924839019775,1.3370720148086548,-2.424351215362549
2024-12-04 21:49:08.148422700,8.322422607421874,-6.093315124511719,1.6756837368011477,-2.528331756591797
2024-12-04 21:49:08.158496500,8.33249658203125,-6.289950847625732,2.086495876312256,-2.4095327854156494
2024-12-04 21:49:08.168571000,8.34257080078125,-6.301664352416992,2.65468168258667,-2.25447154045105
2024-12-04 21:49:08.178645500,8.3526455078125,-6.109574794769287,3.421757698059082,-2.05240249633789
2024-12-04 21:49:08.188719900,8.362719970703125,-5.869523048400879,4.368288040161133,-1.7529451847076416
2024-12-04 21:49:08.198794500,8.37279443359375,-5.726433753967285,4.972246170043945,-1.496201515197754
2024-12-04 21:49:08.208868900,8.382868896484375,-5.729930400848389,5.193684577941895,-1.2135980129241943
2024-12-04 21:49:08.218942700,8.392942626953126,-5.783484935760498,4.985638618469238,-0.8697733283042908
2024-12-04 21:49:08.229017900,8.403017822265625,-5.772268772125244,4.526527404785156,-0.4933286905288696
2024-12-04 21:49:08.239091700,8.413091796875,-5.683049201965332,4.015599727630615,-0.1335585266351699
2024-12-04 21:49:08.249166800,8.423166748046874,-5.47782039642334,3.653002977371216,0.1649082750082016
2024-12-04 21:49:08.259240700,8.43324072265625,-5.114380836486816,3.51534366607666,0.3499950170516968
2024-12-04 21:49:08.269314800,8.443314697265626,-4.69117546081543,3.624234437942505,0.3802204728126526
2024-12-04 21:49:08.279389700,8.4533896484375,-4.196238040924072,3.7178142070770255,0.3468596041202545
2024-12-04 21:49:08.289463800,8.4634638671875,-3.729182720184326,3.5798468589782715,0.2356335967779159
2024-12-04 21:49:08.299538700,8.47353857421875,-3.381587505340576,3.56484055519104,0.1296669542789459
2024-12-04 21:49:08.309612800,8.48361279296875,-2.9276015758514404,3.497751235961914,0.1063690781593322
2024-12-04 21:49:08.319687700,8.493687744140624,-2.4750216007232666,3.233776092529297,0.0471166707575321
2024-12-04 21:49:08.329761800,8.50376171875,-2.29061245918274,3.1956374645233154,-0.0928629785776138
2024-12-04 21:49:08.339835600,8.513835693359376,-2.087554693222046,2.9628608226776123,-0.1544120907783508
2024-12-04 21:49:08.349910800,8.523910888671875,-1.8200666904449463,2.926565647125244,-0.4057908058166504
2024-12-04 21:49:08.359984600,8.533984619140625,-1.3032382726669312,2.555814743041992,-0.5191583633422852
2024-12-04 21:49:08.370058800,8.544058837890624,-0.7145455479621887,2.3003225326538086,-0.5270184278488159
2024-12-04 21:49:08.380133600,8.554133544921875,-0.1966510117053985,2.0198028087615967,-0.4667510986328125
2024-12-04 21:49:08.390207700,8.564207763671876,0.1609678715467453,1.850526213645935,-0.4561536014080047
2024-12-04 21:49:08.400282600,8.57428271484375,0.3649662733078003,2.059921264648437,-0.6734271049499512
2024-12-04 21:49:08.410356700,8.584356689453125,0.6142997145652771,2.021756410598755,-0.9879441857337952
2024-12-04 21:49:08.420431600,8.594431640625,0.8461904525756836,1.805055022239685,-1.3378452062606812
2024-12-04 21:49:08.430505700,8.604505615234375,1.0305144786834717,1.513891100883484,-1.6582272052764893
2024-12-04 21:49:08.440579600,8.61457958984375,1.1029056310653689,1.356135010719299,-1.954711556434632
2024-12-04 21:49:08.450654700,8.62465478515625,1.085937738418579,1.5398582220077517,-2.1719307899475098
2024-12-04 21:49:08.460728600,8.634728515625,1.1916275024414062,1.6194454431533811,-2.344369649887085
2024-12-04 21:49:08.470803700,8.6448037109375,1.3435906171798706,1.3436424732208252,-2.4473650455474854
2024-12-04 21:49:08.480877600,8.654877685546875,1.5083726644515991,0.8611423373222351,-2.519547939300537
2024-12-04 21:49:08.490951700,8.66495166015625,1.6803414821624756,0.325499415397644,-2.5840933322906494
2024-12-04 21:49:08.501026600,8.675026611328125,1.810105800628662,-0.104416012763977,-2.617553234100342
2024-12-04 21:49:08.511100700,8.6851005859375,1.8690192699432373,-0.3894577622413635,-2.617903232574463
2024-12-04 21:49:08.521175600,8.695175537109375,1.887588262557984,-0.5366072654724121,-2.5388169288635254
2024-12-04 21:49:08.531249700,8.705249755859375,1.6873031854629517,-0.126925453543663,-1.8409357070922847
2024-12-04 21:49:08.541323800,8.71532373046875,1.5099798440933228,-0.4199919700622558,-1.3384126424789429
2024-12-04 21:49:08.551398700,8.725398681640625,1.0292854309082031,-0.8212698101997375,-0.4063638746738434
2024-12-04 21:49:08.561472800,8.73547265625,0.2769648134708404,-1.5817562341690063,0.842399537563324
2024-12-04 21:49:08.571547600,8.745547607421875,-1.6910691261291504,-2.120062828063965,1.9357222318649288
2024-12-04 21:49:08.581621800,8.755621826171875,-3.907729148864746,-2.756709814071656,2.6821398735046387
2024-12-04 21:49:08.591695600,8.765695556640624,-4.004659652709961,-4.095907688140869,3.120396614074707
2024-12-04 21:49:08.601770800,8.775770751953125,-3.040922403335572,-4.681208610534668,3.2144596576690674
2024-12-04 21:49:08.611844900,8.785844970703126,-1.7891522645950315,-3.542320489883423,2.886251926422119
2024-12-04 21:49:08.621919700,8.795919677734375,-0.9970935583114624,-1.210861325263977,1.184240221977234
2024-12-04 21:49:08.631993900,8.805993896484376,-0.6390858888626099,0.1935858428478241,-0.2907706201076507
2024-12-04 21:49:08.642067700,8.816067626953124,-0.3669696450233459,0.9123801589012146,-0.6339055895805359
2024-12-04 21:49:08.652142800,8.826142822265625,-0.3023273944854736,1.2595642805099487,-0.3985424339771271
2024-12-04 21:49:08.662216700,8.836216796875,-0.4085960686206817,1.6689640283584597,0.1119519993662834
2024-12-04 21:49:08.672291800,8.846291748046875,-0.4039967954158783,1.8445773124694824,0.7578654885292053
2024-12-04 21:49:08.682365700,8.85636572265625,-0.4383358359336853,1.9193463325500488,1.395995855331421
2024-12-04 21:49:08.692439600,8.866439453125,-0.6116557717323303,2.0541975498199463,1.924399852752685
2024-12-04 21:49:08.702514700,8.8765146484375,-0.9207786917686462,2.244124412536621,2.291696548461914
2024-12-04 21:49:08.712588500,8.886588623046874,-1.2596240043640137,2.591348171234131,2.534175395965576
2024-12-04 21:49:08.722663700,8.89666357421875,-1.6096537113189695,2.8075618743896484,2.620184898376465
2024-12-04 21:49:08.732737500,8.906737548828126,-1.876622557640076,2.963735580444336,2.617098331451416
2024-12-04 21:49:08.742811600,8.916811767578125,-1.9955699443817136,3.026294469833374,2.47322678565979
2024-12-04 21:49:08.752886800,8.92688671875,-2.0103700160980225,3.1787681579589844,2.2405760288238525
2024-12-04 21:49:08.762960600,8.936960693359374,-1.979453682899475,3.183105707168579,2.043734073638916
2024-12-04 21:49:08.773035800,8.947035888671875,-1.873546838760376,2.950236797332764,1.9041118621826167
2024-12-04 21:49:08.783109600,8.957109619140626,-1.40707528591156,2.2279014587402344,1.8878412246704104
2024-12-04 21:49:08.793183500,8.96718359375,-0.9556999206542968,1.5760080814361572,1.7292379140853882
2024-12-04 21:49:08.803258600,8.977258544921876,-0.6391587257385254,1.297038197517395,1.513361573219299
2024-12-04 21:49:08.813332500,8.98733251953125,-0.4547097384929657,1.2302557229995728,1.27244234085083
2024-12-04 21:49:08.823407600,8.99740771484375,-0.2913378477096557,1.1226866245269775,0.9744892716407776
2024-12-04 21:49:08.833481500,9.0074814453125,-0.1727780401706695,0.8860807418823242,0.6470620036125183
2024-12-04 21:49:08.843555600,9.0175556640625,-0.0181306786835193,0.6065391302108765,0.4531564712524414
2024-12-04 21:49:08.853630500,9.02763037109375,-0.0078584998846054,0.4671968817710876,0.2232741266489029
2024-12-04 21:49:08.863704300,9.037704345703125,-0.0185982286930084,0.490628182888031,-0.0747642144560813
2024-12-04 21:49:08.873779500,9.047779541015624,0.0718654915690422,0.624675989151001,-0.5567766427993774
2024-12-04 21:49:08.883853300,9.057853271484374,0.1757809668779373,-0.0471863113343715,-0.7074795961380005
2024-12-04 21:49:08.893927700,9.067927734375,0.3521011471748352,-0.612330973148346,-0.94664865732193
2024-12-04 21:49:08.904002300,9.078002197265626,0.5581033229827881,-1.0314139127731323,-1.1413602828979492
2024-12-04 21:49:08.914076700,9.08807666015625,0.6847800016403198,-1.227299690246582,-1.2516136169433594
2024-12-04 21:49:08.924151300,9.0981513671875,0.7271666526794434,-1.2472171783447266,-1.3185523748397827
2024-12-04 21:49:08.934225700,9.1082255859375,0.8482276797294617,-1.295331954956055,-1.289790391921997
2024-12-04 21:49:08.944299500,9.118299560546877,0.7655532956123352,-1.1310076713562012,-1.242794394493103
2024-12-04 21:49:08.954374700,9.128374755859374,0.5307373404502869,-1.0740492343902588,-1.0886085033416748
2024-12-04 21:49:08.964448500,9.138448486328125,0.3197854161262512,-0.9831252098083496,-0.9088148474693298
2024-12-04 21:49:08.974523600,9.148523681640626,0.1461843401193618,-0.8536772727966309,-0.7564184069633484
2024-12-04 21:49:08.984597500,9.158597412109376,0.0334884077310562,-0.7645641565322876,-0.5902430415153503
2024-12-04 21:49:08.994671600,9.168671630859375,-0.0467487424612045,-0.6881957054138184,-0.4423674941062927
2024-12-04 21:49:09.004746500,9.17874658203125,-0.1017350256443023,-0.6856534481048584,-0.2926144897937774
2024-12-04 21:49:09.014820600,9.188820556640623,-0.0604322627186775,-0.717362642288208,-0.1463524848222732
2024-12-04 21:49:09.024895500,9.1988955078125,0.1146045327186584,-0.7182164192199707,-0.0123683214187622
2024-12-04 21:49:09.034969600,9.208969482421876,0.3660081923007965,-0.6367775797843933,0.0407361611723899
2024-12-04 21:49:09.045043500,9.21904345703125,0.6008619666099548,-0.5128008127212524,0.0511299446225166
2024-12-04 21:49:09.055118600,9.22911865234375,0.8726145625114441,-0.302227258682251,0.1083815246820449
2024-12-04 21:49:09.065192400,9.2391923828125,1.0509613752365112,-0.166395679116249,0.0476329624652862
2024-12-04 21:49:09.075267600,9.249267578125,1.0152831077575684,-0.0248563289642334,-0.0237589254975318
2024-12-04 21:49:09.085341400,9.259341552734377,0.9558508396148682,-0.0551950596272945,-0.0984970778226852
2024-12-04 21:49:09.095415600,9.26941552734375,0.8322956562042236,-0.322433203458786,-0.1698586046695709
2024-12-04 21:49:09.105490400,9.279490478515624,0.7680298686027527,-0.5902454853057861,-0.2497798055410385
2024-12-04 21:49:09.115564500,9.289564453125,0.7264103293418884,-0.712823212146759,-0.2746909856796264
2024-12-04 21:49:09.125639400,9.299639404296874,0.6915426254272461,-0.7249688506126404,-0.2639805376529693
2024-12-04 21:49:09.135713500,9.309713623046877,0.6463946104049683,-0.6797130107879639,-0.2240297794342041
2024-12-04 21:49:09.145787400,9.319787353515624,0.619513213634491,-0.5610297322273254,-0.1489368826150894
2024-12-04 21:49:09.155862500,9.329862548828125,0.6120983958244324,-0.40139040350914,-0.0733740329742431
2024-12-04 21:49:09.165936400,9.339936279296875,0.6162907481193542,-0.2136513888835907,-0.0282473042607307
2024-12-04 21:49:09.176011500,9.350011474609374,0.6152055263519287,-0.0585251152515411,-0.0063913231715559
2024-12-04 21:49:09.186085400,9.36008544921875,0.6091649532318115,0.1080928966403007,0.0027675540186464
2024-12-04 21:49:09.196159500,9.370159423828126,0.5798467993736267,0.2749547362327575,0.0121629573404788
2024-12-04 21:49:09.206234400,9.380234375,0.5269079804420471,0.3905561566352844,0.0236025657504796
2024-12-04 21:49:09.216308500,9.39030859375,0.4496440887451172,0.4397854804992676,0.0486198998987674
2024-12-04 21:49:09.226382600,9.400382568359374,0.3716433048248291,0.4814509153366089,0.0682295486330986
2024-12-04 21:49:09.236457500,9.41045751953125,0.3163311183452606,0.5029540657997131,0.0997791960835456
2024-12-04 21:49:09.246531600,9.420531494140626,0.2829332053661346,0.4945025444030761,0.1221233829855918
2024-12-04 21:49:09.256606500,9.4306064453125,0.2528825998306274,0.4792981743812561,0.1416729092597961
2024-12-04 21:49:09.266680600,9.4406806640625,0.1976308077573776,0.4442754685878753,0.1459174454212188
2024-12-04 21:49:09.276754400,9.45075439453125,0.1114174276590347,0.4123749434947967,0.1641396284103393
2024-12-04 21:49:09.286829600,9.46082958984375,0.0305007398128509,0.450902372598648,0.1583291441202163
2024-12-04 21:49:09.296903700,9.470903564453126,-0.0019064019434154,0.5211907029151917,0.1148118004202842
2024-12-04 21:49:09.306978600,9.480978515625,-0.0003923950716853,0.5664554238319397,0.0955174639821052
2024-12-04 21:49:09.317052700,9.491052734375,0.0236946642398834,0.6243796348571777,0.1234159171581268
2024-12-04 21:49:09.327126500,9.50112646484375,0.0404826998710632,0.6198266744613647,0.1845607608556747
2024-12-04 21:49:09.337201700,9.51120166015625,0.0395426712930202,0.6016313433647156,0.2294401377439499
2024-12-04 21:49:09.347275500,9.521275634765624,0.0186280682682991,0.5817478895187378,0.2380464076995849
2024-12-04 21:49:09.357350700,9.5313505859375,-0.0108058210462331,0.5371184349060059,0.2700761258602142
2024-12-04 21:49:09.367424500,9.541424560546876,-0.0389333292841911,0.5143918395042419,0.3013275265693664
2024-12-04 21:49:09.377498400,9.551498291015625,-0.0782390534877777,0.5062457323074341,0.3200093805789947
2024-12-04 21:49:09.387573500,9.561573486328124,-0.0780451744794845,0.46369269490242,0.305043488740921
2024-12-04 21:49:09.397647400,9.5716474609375,-0.0905606746673584,0.4277403056621551,0.2280991226434707
2024-12-04 21:49:09.407722500,9.581722412109375,-0.1137783676385879,0.4066704511642456,0.1264697015285492
2024-12-04 21:49:09.417796400,9.59179638671875,-0.1292975842952728,0.4118829667568207,0.0579705089330673
2024-12-04 21:49:09.427870500,9.601870361328125,-0.1633151918649673,0.3577627539634704,0.0198561456054449
2024-12-04 21:49:09.437945600,9.611945556640626,-0.1561798751354217,0.274274617433548,0.0122409332543611
2024-12-04 21:49:09.448019500,9.62201953125,-0.1113324910402298,0.1842323541641235,0.0349893867969512
2024-12-04 21:49:09.458094600,9.632094482421875,-0.0796415135264396,0.1201005652546882,0.0892746075987815
2024-12-04 21:49:09.468168400,9.64216845703125,-0.071515679359436,0.0931816026568412,0.1846163123846054
2024-12-04 21:49:09.478242300,9.6522421875,-0.0938604623079299,0.1320141553878784,0.3103529214859009
2024-12-04 21:49:09.488317400,9.6623173828125,-0.132132202386856,0.193705216050148,0.412147969007492
2024-12-04 21:49:09.498391300,9.672391357421876,-0.1696146726608276,0.2776291966438293,0.4815551042556762
2024-12-04 21:49:09.508466400,9.682466552734375,-0.2322655320167541,0.4274826049804687,0.5457934737205505
2024-12-04 21:49:09.518540300,9.692540283203124,-0.291006326675415,0.5455107688903809,0.586272120475769
2024-12-04 21:49:09.528614400,9.702614501953123,-0.3190717697143554,0.6156789064407349,0.6177810430526733
2024-12-04 21:49:09.538689300,9.712689208984376,-0.3106415271759033,0.5762594938278198,0.6437875032424927
2024-12-04 21:49:09.548763400,9.722763427734376,-0.2593500912189483,0.498732715845108,0.6475865244865417
2024-12-04 21:49:09.558838500,9.732838623046876,-0.2142713665962219,0.4881814420223236,0.639560878276825
2024-12-04 21:49:09.568912400,9.742912353515624,-0.1850415766239166,0.5147826671600342,0.629543662071228
2024-12-04 21:49:09.578986500,9.752986572265623,-0.1957200467586517,0.5712770223617554,0.6260431408882141
2024-12-04 21:49:09.589061400,9.763061279296876,-0.2316072136163711,0.6369958519935608,0.6117004156112671
2024-12-04 21:49:09.599135500,9.773135498046877,-0.2853770852088928,0.6869714260101318,0.6009365320205688
2024-12-04 21:49:09.609210400,9.78321044921875,-0.316929429769516,0.6872502565383911,0.614512026309967
2024-12-04 21:49:09.619284500,9.793284423828124,-0.3404648303985595,0.6299943327903748,0.6329330205917358
2024-12-04 21:49:09.629359400,9.803359375,-0.3536650538444519,0.5744884610176086,0.6375251412391663
2024-12-04 21:49:09.639433500,9.81343359375,-0.347193568944931,0.5203944444656372,0.627819299697876
2024-12-04 21:49:09.649507600,9.823507568359377,-0.3326673805713653,0.4224078953266144,0.5882084965705872
2024-12-04 21:49:09.659582500,9.83358251953125,-0.2959455847740173,0.2966627478599548,0.4896243810653686
2024-12-04 21:49:09.669656600,9.843656494140625,-0.2218468636274337,0.2964086830615997,0.3332858979701996
2024-12-04 21:49:09.679731700,9.853731689453124,-0.1649472564458847,0.2087176591157913,0.0824251621961593
2024-12-04 21:49:09.689805600,9.8638056640625,-0.1362940371036529,-0.2233053892850875,-0.1944399923086166
2024-12-04 21:49:09.699879400,9.87387939453125,-0.1142045482993125,-0.5877740979194641,-0.4594238400459289
2024-12-04 21:49:09.709954600,9.88395458984375,-0.0665243789553642,-0.8581867218017578,-0.6795628666877747
2024-12-04 21:49:09.720028400,9.8940283203125,-0.0385285317897796,-1.104554295539856,-0.8169307112693787
2024-12-04 21:49:09.730103600,9.904103515625,-0.0004471931606531,-1.290895700454712,-0.916868269443512
2024-12-04 21:49:09.740177400,9.914177490234374,0.0681023746728897,-1.430933952331543,-1.01477313041687
2024-12-04 21:49:09.750252500,9.92425244140625,0.1596842110157013,-1.436207294464111,-1.001773238182068
2024-12-04 21:49:09.760326400,9.934326416015624,0.2004016190767288,-1.3623226881027222,-0.966553032398224
2024-12-04 21:49:09.770400500,9.944400390625,0.2379489988088607,-1.3163552284240725,-0.9347034692764282
2024-12-04 21:49:09.780475400,9.954475341796876,0.2532466650009155,-1.30098557472229,-0.930258810520172
2024-12-04 21:49:09.790549500,9.964549560546876,0.2519883215427398,-1.3089708089828491,-0.9152023196220398
2024-12-04 21:49:09.800624600,9.974624755859375,0.2960824370384216,-1.2886282205581665,-0.8559439778327942
2024-12-04 21:49:09.810698500,9.984698486328124,0.4438945353031158,-1.2391717433929443,-0.757101833820343
2024-12-04 21:49:09.820773600,9.994773681640623,0.495799571275711,-1.222934603691101,-0.7297279238700867
2024-12-04 21:49:09.830847500,10.004847412109376,0.5188239216804504,-1.2120054960250854,-0.5976910591125488
2024-12-04 21:49:09.840921300,10.01492138671875,0.4905904531478882,-1.1425944566726685,-0.4499018788337707
2024-12-04 21:49:09.850996500,10.02499658203125,0.4469098150730133,-1.106825351715088,-0.3399540781974792
2024-12-04 21:49:09.861070300,10.0350703125,0.4272123277187347,-1.0049432516098022,-0.2740862071514129
2024-12-04 21:49:09.871144200,10.045144287109377,0.3974975943565368,-0.8480898141860962,-0.2404275834560394
2024-12-04 21:49:09.881218300,10.05521826171875,0.3631563782691955,-0.6903653740882874,-0.2207855284214019
2024-12-04 21:49:09.891293200,10.065293212890625,0.3237431943416595,-0.5365877747535706,-0.2135281413793563
2024-12-04 21:49:09.901367300,10.0753671875,0.2660694718360901,-0.4111236929893493,-0.1974154412746429
2024-12-04 21:49:09.911442200,10.085442138671874,0.2089190930128097,-0.2734052538871765,-0.1320401728153228
2024-12-04 21:49:09.921516300,10.095516357421875,0.1619353741407394,-0.1275039315223693,-0.0400086492300033
2024-12-04 21:49:09.931590400,10.10559033203125,0.070584163069725,-0.0150548862293362,0.0075961537659168
2024-12-04 21:49:09.941665300,10.115665283203125,-0.0585660003125667,0.0437101051211357,0.0166283994913101
2024-12-04 21:49:09.951739400,10.125739501953126,-0.1253120005130767,0.0974020883440971,-0.0061626671813428
2024-12-04 21:49:09.961814300,10.135814208984376,-0.0839636772871017,0.1586371213197708,-0.1447165161371231
2024-12-04 21:49:09.971888400,10.145888427734375,-0.0308562461286783,0.2595994174480438,-0.2005105316638946
2024-12-04 21:49:09.981963500,10.155963623046874,-0.0206930600106716,0.5477050542831421,-0.0246670395135879
2024-12-04 21:49:09.992037400,10.166037353515623,-0.1523458957672119,0.7920154333114624,0.1576002389192581
2024-12-04 21:49:10.002112500,10.176112548828126,-0.2685760855674743,0.5313817262649536,-0.0163894817233085
2024-12-04 21:49:10.012186400,10.186186279296876,-0.2325374037027359,0.0775721594691276,-0.3277785181999206
2024-12-04 21:49:10.022260200,10.19626025390625,-0.0801819562911987,-0.2346819043159485,-0.4726184606552124
2024-12-04 21:49:10.032335400,10.20633544921875,-0.0543956309556961,-0.2557549476623535,-0.4727851748466491
2024-12-04 21:49:10.042409200,10.2164091796875,-0.1345013827085495,-0.191823348402977,-0.3886309564113617
2024-12-04 21:49:10.052484400,10.226484375,-0.1683224588632583,-0.1722810715436935,-0.2118471264839172
2024-12-04 21:49:10.062558200,10.23655810546875,-0.1467771083116531,-0.094925932586193,0.0018357194494456
2024-12-04 21:49:10.072633300,10.24663330078125,-0.1203369721770286,0.007579137571156,0.109921708703041
2024-12-04 21:49:10.082707200,10.256707275390625,0.0039670979604125,0.0156385656446218,0.1128259897232055
2024-12-04 21:49:10.092782300,10.2667822265625,0.1111830323934555,-0.0174277741461992,0.0409126542508602
2024-12-04 21:49:10.102856400,10.2768564453125,0.2801685035228729,0.0319291800260543,-0.0443374067544937
2024-12-04 21:49:10.112931300,10.286931396484375,0.3856480419635772,0.0674296468496322,-0.0943406522274017
2024-12-04 21:49:10.123005400,10.29700537109375,0.4280852079391479,0.116899661719799,-0.1028627306222915
2024-12-04 21:49:10.133080300,10.307080322265625,0.4178634881973266,0.2092365026473999,-0.1028936207294464
2024-12-04 21:49:10.143154400,10.317154541015626,0.4084222912788391,0.3583176136016845,-0.1105526685714721
2024-12-04 21:49:10.153228300,10.327228271484374,0.3931631743907928,0.4976179897785187,-0.0908705741167068
2024-12-04 21:49:10.163303400,10.337303466796875,0.3693854212760925,0.6696001291275024,-0.0924010947346687
2024-12-04 21:49:10.173377300,10.347377197265626,0.3379137814044952,0.8614984750747681,-0.1004984378814697
2024-12-04 21:49:10.183452400,10.357452392578123,0.2792737483978271,1.016384840011597,-0.1406331360340118
2024-12-04 21:49:10.193526300,10.3675263671875,0.2675867080688476,1.0896071195602417,-0.213036224246025
2024-12-04 21:49:10.203601400,10.377601318359376,0.2720658481121063,1.122930884361267,-0.3280428349971771
2024-12-04 21:49:10.213675300,10.38767529296875,0.2714583873748779,1.1547623872756958,-0.4629814624786377
2024-12-04 21:49:10.223750400,10.39775048828125,0.1633945554494857,1.1205629110336304,-0.5962654948234558
2024-12-04 21:49:10.233824300,10.40782421875,0.1210612133145332,1.045196771621704,-0.6548560857772827
2024-12-04 21:49:10.243899400,10.4178994140625,0.2165796607732772,0.8315113186836243,-0.6699450612068176
2024-12-04 21:49:10.253973200,10.42797314453125,0.1813572347164154,0.6852843165397644,-0.6203508377075195
2024-12-04 21:49:10.264048400,10.43804833984375,0.1279098093509674,0.6189994215965271,-0.4766098856925964
2024-12-04 21:49:10.274122200,10.448122314453125,0.0500879697501659,0.4411327838897705,-0.2503085732460022
2024-12-04 21:49:10.284197400,10.458197265625,0.1239592134952545,0.257385790348053,-0.0146133136004209
2024-12-04 21:49:10.294271200,10.468271240234374,0.3519468307495117,-0.0252384562045335,0.2185869216918945
2024-12-04 21:49:10.304346400,10.478346435546875,0.3870594501495361,-0.1855292916297912,0.3738851249217987
2024-12-04 21:49:10.314420200,10.488420166015626,0.3195110261440277,-0.2880047857761383,0.44619020819664
2024-12-04 21:49:10.324495400,10.498495361328125,0.3345569670200348,-0.4198589622974396,0.5050649046897888
2024-12-04 21:49:10.334569200,10.5085693359375,0.3378536999225616,-0.4004466533660888,0.530529260635376
2024-12-04 21:49:10.344644400,10.518644287109376,0.3403499722480774,-0.3119003772735595,0.4790568649768829
2024-12-04 21:49:10.354718200,10.52871826171875,0.3408738076686859,-0.2534828782081604,0.4002171754837036
2024-12-04 21:49:10.364793300,10.53879345703125,0.2770338058471679,-0.3443132936954498,0.3253297209739685
2024-12-04 21:49:10.374867200,10.5488671875,0.2484599202871322,-0.3427987694740295,0.2917115688323974
2024-12-04 21:49:10.384942300,10.5589423828125,0.2674886286258697,-0.2338605523109436,0.2682330012321472
2024-12-04 21:49:10.395016200,10.56901611328125,0.2375317960977554,-0.1355259865522384,0.2320925891399383
2024-12-04 21:49:10.405091300,10.57909130859375,0.1715064197778701,-0.0149834342300891,0.1803240776062011
2024-12-04 21:49:10.415165200,10.589165283203124,0.1197659820318222,0.0499713309109211,0.1143338605761528
2024-12-04 21:49:10.425240300,10.599240234375,0.0973074287176132,0.0563829317688941,0.0613114796578884
2024-12-04 21:49:10.435314200,10.609314208984374,0.0967031568288803,0.0132229439914226,0.033643901348114
2024-12-04 21:49:10.445389300,10.619389404296877,0.1069511026144027,-0.0634630993008613,0.0248513594269752
2024-12-04 21:49:10.455463200,10.629463134765626,0.1126089915633201,-0.1672382354736328,0.0129640744999051
2024-12-04 21:49:10.465538300,10.639538330078125,0.1284297257661819,-0.2333805859088897,-0.0016025472432374
2024-12-04 21:49:10.475612400,10.6496123046875,0.1514274477958679,-0.2865799069404602,-0.0247866958379745
2024-12-04 21:49:10.485687300,10.659687255859374,0.1795315593481063,-0.3439683020114898,-0.0722178965806961
2024-12-04 21:49:10.495761400,10.669761474609375,0.1972964406013488,-0.3281094431877136,-0.1152319461107254
2024-12-04 21:49:10.505836300,10.679836181640624,0.2091119140386581,-0.2983332574367523,-0.1213405206799507
2024-12-04 21:49:10.515910400,10.689910400390623,0.225801408290863,-0.3082362115383148,-0.1102314069867134
2024-12-04 21:49:10.525985300,10.6999853515625,0.2555335462093353,-0.3554925322532654,-0.1140373721718788
2024-12-04 21:49:10.536059400,10.710059326171876,0.2865348756313324,-0.4084665179252624,-0.144179031252861
2024-12-04 21:49:10.546134300,10.72013427734375,0.3077591061592102,-0.4672552645206451,-0.2109669893980026
2024-12-04 21:49:10.556208400,10.73020849609375,0.3143693208694458,-0.4991447627544403,-0.2840792834758758
2024-12-04 21:49:10.566283300,10.740283203125,0.3034985065460205,-0.5398547649383545,-0.3142860829830169
2024-12-04 21:49:10.576357400,10.750357421875,0.2872833013534546,-0.574113667011261,-0.2955270409584045
2024-12-04 21:49:10.586432300,10.760432373046877,0.2891214787960052,-0.5989571213722229,-0.2180451154708862
2024-12-04 21:49:10.596507400,10.77050732421875,0.2934461832046509,-0.6179167032241821,-0.1125786080956459
2024-12-04 21:49:10.606581200,10.780581298828125,0.2406977117061615,-0.6335005760192871,-0.0350483506917953
2024-12-04 21:49:10.616656400,10.790656494140626,0.2189034670591354,-0.603998601436615,-0.0168813336640596
2024-12-04 21:49:10.626730200,10.800730224609374,0.2221283614635467,-0.5659661293029785,-0.0574501417577266
2024-12-04 21:49:10.636805400,10.810805419921875,0.2316230684518814,-0.4791217744350433,-0.1160641908645629
2024-12-04 21:49:10.646879200,10.820879150390626,0.2087113261222839,-0.4793543219566345,-0.1777802556753158
2024-12-04 21:49:10.656954400,10.830954345703123,0.1966410875320434,-0.4664401113986969,-0.2045668512582779
2024-12-04 21:49:10.667028200,10.8410283203125,0.1730552464723587,-0.4175345599651336,-0.212702214717865
2024-12-04 21:49:10.677103400,10.851103271484376,0.1605647504329681,-0.3575375378131866,-0.2084645926952362
2024-12-04 21:49:10.687177200,10.86117724609375,0.1459352672100067,-0.3292199969291687,-0.2085043340921402
2024-12-04 21:49:10.697252400,10.87125244140625,0.0837302282452583,-0.2721993327140808,-0.1753272116184234
2024-12-04 21:49:10.707327500,10.881327392578124,0.0287817995995283,-0.2570999264717102,-0.1255011409521103
2024-12-04 21:49:10.717401300,10.8914013671875,0.0028719059191644,-0.275336742401123,-0.0843459889292717
2024-12-04 21:49:10.727476500,10.9014765625,-0.0139288175851106,-0.2781611084938049,-0.0390755534172058
2024-12-04 21:49:10.737550300,10.91155029296875,-0.0253737531602382,-0.2653619349002838,0.005840522237122
2024-12-04 21:49:10.747625500,10.92162548828125,-0.0545345246791839,-0.2563760578632355,0.0305884592235088
2024-12-04 21:49:10.757699300,10.93169921875,-0.0757191702723503,-0.2160105556249618,0.0232274811714887
2024-12-04 21:49:10.767774500,10.9417744140625,-0.0889433026313781,-0.1303165555000305,0.0056646587327122
2024-12-04 21:49:10.777848300,10.951848388671875,-0.0920589342713356,-0.0422077476978302,-0.0070404838770627
2024-12-04 21:49:10.787923500,10.96192333984375,-0.1094927936792373,0.0327759236097335,-0.0061691110022366
2024-12-04 21:49:10.797998000,10.971998046875,-0.1245529726147651,0.0579036474227905,0.027107086032629
2024-12-04 21:49:10.808072400,10.982072509765626,-0.1470111459493637,0.0193660967051982,0.0621326230466365
2024-12-04 21:49:10.818147000,10.99214697265625,-0.1574091911315918,-0.0580386817455291,0.0869689956307411
2024-12-04 21:49:10.828221400,11.002221435546875,-0.1564146131277084,-0.1003541350364685,0.1127663999795913
2024-12-04 21:49:10.838296000,11.012296142578125,-0.1706835627555847,-0.1226850152015686,0.149476483464241
2024-12-04 21:49:10.848370400,11.022370361328123,-0.1974744200706482,-0.132440447807312,0.171248510479927
2024-12-04 21:49:10.858445000,11.032445068359374,-0.1941255033016204,-0.1099439263343811,0.1949000507593155
2024-12-04 21:49:10.868521000,11.04252099609375,-0.1776471734046936,-0.0680553093552589,0.2481398582458496
2024-12-04 21:49:10.878594800,11.0525947265625,-0.1633926033973693,-0.0244953092187643,0.2910548448562622
2024-12-04 21:49:10.888670000,11.062669921875,-0.144603431224823,0.0294100865721702,0.2954846322536468
2024-12-04 21:49:10.898744000,11.072744140625,-0.1365670710802078,0.0282928869128227,0.2841949462890625
2024-12-04 21:49:10.908819000,11.08281884765625,-0.1406416893005371,-0.0374250970780849,0.2913542687892914
2024-12-04 21:49:10.918894000,11.09289404296875,-0.1669385433197021,-0.0904329195618629,0.3364304006099701
2024-12-04 21:49:10.928968000,11.102968017578124,-0.196680799126625,-0.1135114803910255,0.420099526643753
2024-12-04 21:49:10.939043000,11.11304296875,-0.2277356535196304,-0.1086546778678894,0.5265553593635559
2024-12-04 21:49:10.949117000,11.123116943359374,-0.2831522226333618,-0.0666833668947219,0.646661102771759
2024-12-04 21:49:10.959192000,11.133192138671877,-0.3272781372070312,0.027325952425599,0.7586281299591064
2024-12-04 21:49:10.969267000,11.143266845703126,-0.3689146637916565,0.1021144017577171,0.8590155243873596
2024-12-04 21:49:10.979341000,11.153341064453125,-0.5745581388473511,0.18418850004673,0.8242554068565369
2024-12-04 21:49:10.989416000,11.163416015625,-0.8294300436973572,0.1550150662660598,0.8079648613929749
2024-12-04 21:49:10.999490000,11.173489990234376,-1.026056170463562,0.0775338560342788,0.8506885766983032
2024-12-04 21:49:11.009565000,11.18356494140625,-1.3260676860809326,0.0828628987073898,0.8964484333992004
2024-12-04 21:49:11.019640000,11.19364013671875,-1.6428654193878174,0.1866177916526794,0.8932436108589172
2024-12-04 21:49:11.029714200,11.203714111328123,-1.943506360054016,0.3478512763977051,0.830385684967041
2024-12-04 21:49:11.039789000,11.2137890625,-2.177802085876465,0.5001662373542786,0.7419317364692688
2024-12-04 21:49:11.049863200,11.22386328125,-2.3402085304260254,0.6582730412483215,0.5677683353424072
2024-12-04 21:49:11.059938000,11.23393798828125,-2.420226573944092,0.804531455039978,0.3834925293922424
2024-12-04 21:49:11.070013000,11.244012939453125,-2.40967059135437,0.9331670999526978,0.2679711580276489
2024-12-04 21:49:11.080087000,11.254087158203124,-2.341198205947876,1.051357388496399,0.24271160364151
2024-12-04 21:49:11.090162000,11.264161865234374,-2.2661356925964355,1.1474494934082031,0.261615514755249
2024-12-04 21:49:11.100236800,11.27423681640625,-2.2328426837921143,1.263952136039734,0.3054322600364685
2024-12-04 21:49:11.110311000,11.284310791015624,-2.208287000656128,1.3536221981048584,0.3899708092212677
2024-12-04 21:49:11.120385800,11.2943857421875,-2.1618237495422363,1.3181341886520386,0.499854177236557
2024-12-04 21:49:11.130460000,11.3044599609375,-2.0699715614318848,1.185695767402649,0.558988630771637
2024-12-04 21:49:11.140534800,11.31453466796875,-1.933790922164917,1.0409178733825684,0.5393171906471252
2024-12-04 21:49:11.150610000,11.32460986328125,-1.7083479166030884,0.9420366287231444,0.4990278482437134
2024-12-04 21:49:11.160684000,11.33468408203125,-1.4275505542755127,0.9185901284217834,0.4638703763484955
2024-12-04 21:49:11.170759000,11.344759033203124,-1.1697607040405271,0.8994406461715698,0.4373359382152557
2024-12-04 21:49:11.180834000,11.354833984375,-0.9701808094978333,0.930734634399414,0.4280308783054352
2024-12-04 21:49:11.190908000,11.364907958984375,-0.8391374945640564,0.9486669898033142,0.4361509084701538
2024-12-04 21:49:11.200983000,11.374983154296874,-0.7073238492012024,0.9369152784347534,0.4327162504196167
2024-12-04 21:49:11.211058000,11.385057861328123,-0.5830956101417542,0.897171676158905,0.3634577691555023
2024-12-04 21:49:11.221132000,11.395132080078126,-0.3814911544322967,0.8168826699256897,0.2485564649105072
2024-12-04 21:49:11.231207000,11.40520703125,-0.1173799708485603,0.6406176686286926,0.0584110617637634
2024-12-04 21:49:11.241281000,11.415281005859375,0.1233071982860565,0.3648822605609894,-0.1921750754117965
2024-12-04 21:49:11.251356000,11.42535595703125,0.2438586950302124,0.2019046247005462,-0.4942653775215149
2024-12-04 21:49:11.261431000,11.43543115234375,0.3302982449531555,0.0188543703407049,-0.9097064733505248
2024-12-04 21:49:11.271505000,11.4455048828125,0.4428058266639709,-0.370231419801712,-1.1309244632720947
2024-12-04 21:49:11.281580000,11.455580078125,0.5805405378341675,-0.6628886461257935,-1.1746269464492798
2024-12-04 21:49:11.291655200,11.4656552734375,0.7028886079788208,-0.8585656881332397,-1.1620211601257324
2024-12-04 21:49:11.301729000,11.47572900390625,0.8165757656097412,-0.9557963609695436,-1.137006402015686
2024-12-04 21:49:11.311804200,11.48580419921875,0.924174189567566,-0.991088569164276,-1.150128960609436
2024-12-04 21:49:11.321878800,11.495878662109376,0.9936811327934264,-0.9897295832633972,-1.1959278583526611
2024-12-04 21:49:11.331953200,11.505953125,1.027759313583374,-0.9682986736297609,-1.1786991357803345
2024-12-04 21:49:11.342027800,11.51602783203125,1.036821722984314,-0.8961262106895447,-1.0721564292907717
2024-12-04 21:49:11.352103000,11.52610302734375,1.0115703344345093,-0.8399994373321533,-0.8954957723617554
2024-12-04 21:49:11.362176800,11.5361767578125,0.9649766087532043,-0.8036108016967773,-0.6488606929779053
2024-12-04 21:49:11.372252000,11.546251953125,0.9002747535705566,-0.7302271723747253,-0.3773153722286224
2024-12-04 21:49:11.382327000,11.5563271484375,0.8177170157432556,-0.6293261051177979,-0.1364452540874481
2024-12-04 21:49:11.392401000,11.56640087890625,0.7718110680580139,-0.4564114511013031,0.049785029143095
2024-12-04 21:49:11.402476000,11.57647607421875,0.770980179309845,-0.3043507933616638,0.1306367367506027
2024-12-04 21:49:11.412551000,11.586551025390625,0.8554589152336121,-0.1095651760697364,0.0993494093418121
2024-12-04 21:49:11.422625000,11.596625,1.0314643383026123,-0.0166842397302389,-0.0105635095387697
2024-12-04 21:49:11.432700000,11.606699951171874,1.104429841041565,0.0443382263183593,-0.2481557726860046
2024-12-04 21:49:11.442775000,11.616775146484375,1.1180074214935305,-0.0783717110753059,-0.494957834482193
2024-12-04 21:49:11.452849000,11.626848876953124,1.1588326692581177,-0.1729829162359237,-0.6582932472229004
2024-12-04 21:49:11.462924000,11.636924072265623,1.130489945411682,-0.2214716225862503,-0.8418042063713074
2024-12-04 21:49:11.472999200,11.646999267578124,1.1131728887557983,-0.314824640750885,-0.9811694622039796
2024-12-04 21:49:11.483073000,11.657072998046877,1.1551251411437988,-0.4713697731494903,-1.0661323070526123
2024-12-04 21:49:11.493148200,11.667148193359376,1.2223913669586182,-0.5744815468788147,-1.1291829347610474
