time,seconds_elapsed,z,y,x
2024-12-04 21:49:01.641937700,0.031937744140625,0.2964590489864349,2.130045175552368,0.0434984639286994
2024-12-04 21:49:01.651963600,0.041963623046875,0.4252252876758575,2.70185923576355,0.2233878672122955
2024-12-04 21:49:01.661989600,0.05198974609375,0.5980050563812256,3.027012825012207,0.4028636217117309
2024-12-04 21:49:01.672015600,0.062015625,0.7585094571113586,3.1932272911071777,0.6695337891578674
2024-12-04 21:49:01.682041600,0.07204150390625,0.8191062211990356,2.9347712993621826,0.9353241920471193
2024-12-04 21:49:01.692067600,0.082067626953125,0.7537833452224731,2.72890567779541,1.3045969009399414
2024-12-04 21:49:01.702094600,0.092094482421875,0.6368426084518433,2.772930383682251,1.7235677242279053
2024-12-04 21:49:01.712120800,0.102120849609375,0.553811252117157,3.0043466091156006,2.172133684158325
2024-12-04 21:49:01.722146800,0.112146728515625,0.4884727299213409,3.398425340652466,2.622623920440674
2024-12-04 21:49:01.732172800,0.1221728515625,0.3992424011230469,3.769081115722656,3.028198719024658
2024-12-04 21:49:01.742198800,0.13219873046875,0.2701115608215332,4.031392574310303,3.367693901062012
2024-12-04 21:49:01.752224800,0.142224853515625,0.0915101468563079,4.202360153198242,3.622880935668945
2024-12-04 21:49:01.762250800,0.152250732421875,-0.1658271104097366,4.310884952545166,3.7904133796691895
2024-12-04 21:49:01.772276700,0.16227685546875,-0.5828830003738403,4.45421314239502,3.89679765701294
2024-12-04 21:49:01.782302700,0.172302734375,-1.1973499059677124,4.658950328826904,3.959959030151367
2024-12-04 21:49:01.792329700,0.182329833984375,-1.9650025367736816,4.844415664672852,3.9426157474517822
2024-12-04 21:49:01.802355700,0.192355712890625,-2.796023368835449,4.995438098907471,3.7926430702209473
2024-12-04 21:49:01.812381700,0.202381591796875,-3.586902141571045,5.09708309173584,3.530123949050904
2024-12-04 21:49:01.822407700,0.21240771484375,-4.28671932220459,5.143809795379639,3.198824167251587
2024-12-04 21:49:01.832433700,0.22243359375,-4.78085994720459,5.144252777099609,2.860291719436645
2024-12-04 21:49:01.842459600,0.232459716796875,-5.004439830780029,5.082358360290527,2.564817190170288
2024-12-04 21:49:01.852485400,0.2424853515625,-4.952362060546875,4.995966911315918,2.2491490840911865
2024-12-04 21:49:01.862511400,0.252511474609375,-4.7749199867248535,4.822124004364014,1.815012812614441
2024-12-04 21:49:01.872537300,0.262537353515625,-4.549055576324463,4.482608795166016,1.2057185173034668
2024-12-04 21:49:01.882564400,0.272564453125,-4.321881294250488,4.004262447357178,0.4397702217102051
2024-12-04 21:49:01.892590300,0.28259033203125,-4.025193214416504,3.3403146266937256,-0.3827973008155823
2024-12-04 21:49:01.902616300,0.2926162109375,-3.681063413619995,2.600271224975586,-1.2061136960983276
2024-12-04 21:49:01.912642300,0.302642333984375,-3.2941315174102783,1.8001115322113037,-1.9588931798934937
2024-12-04 21:49:01.922668500,0.31266845703125,-2.848109722137451,1.076134443283081,-2.584049940109253
2024-12-04 21:49:01.932694500,0.322694580078125,-2.454156875610352,0.5265867710113525,-3.0300889015197754
2024-12-04 21:49:01.942720500,0.332720458984375,-2.208169221878052,0.2466312497854232,-3.2583155632019043
2024-12-04 21:49:01.952746500,0.34274658203125,-2.102168798446656,0.2428904175758361,-3.2623085975646973
2024-12-04 21:49:01.962772500,0.3527724609375,-2.1151106357574463,0.2519851326942444,-3.0433688163757324
2024-12-04 21:49:01.972799200,0.36279931640625,-2.165174722671509,0.1719756126403808,-2.651059865951538
2024-12-04 21:49:01.982825200,0.3728251953125,-2.1428022384643555,0.0746383965015411,-2.2432901859283447
2024-12-04 21:49:01.992851200,0.382851318359375,-1.9763107299804688,-0.102099023759365,-1.9694901704788208
2024-12-04 21:49:02.002877200,0.392877197265625,-1.7433898448944092,-0.3792912065982818,-1.856203317642212
2024-12-04 21:49:02.012903400,0.4029033203125,-1.5730241537094116,-0.7117849588394165,-1.8558145761489868
2024-12-04 21:49:02.022929400,0.412929443359375,-1.52308988571167,-1.0744675397872925,-1.9137088060379028
2024-12-04 21:49:02.032955400,0.422955322265625,-1.601391077041626,-1.3177708387374878,-1.9303879737854004
2024-12-04 21:49:02.042981400,0.4329814453125,-1.8371386528015137,-1.6175633668899536,-1.8358449935913088
2024-12-04 21:49:02.053007400,0.44300732421875,-2.244502067565918,-2.06696891784668,-1.6105819940567017
2024-12-04 21:49:02.063034400,0.453034423828125,-2.8590478897094727,-2.4409873485565186,-1.3144437074661257
2024-12-04 21:49:02.073060400,0.463060302734375,-3.7457778453826895,-2.9014828205108643,-0.9805213809013368
2024-12-04 21:49:02.083086300,0.47308642578125,-4.822439193725586,-3.321678638458252,-0.6491284966468811
2024-12-04 21:49:02.093112300,0.4831123046875,-5.837465763092041,-3.333523750305176,-0.3222807645797729
2024-12-04 21:49:02.103138600,0.493138671875,-6.654280185699463,-3.1109585762023926,0.1232354640960693
2024-12-04 21:49:02.113164500,0.50316455078125,-6.903968811035156,-2.510871648788452,0.5932856798171997
2024-12-04 21:49:02.123190500,0.5131904296875,-6.828588008880615,-1.8715027570724487,1.1599910259246826
2024-12-04 21:49:02.133216300,0.52321630859375,-6.438387870788574,-1.4514988660812378,1.5818079710006714
2024-12-04 21:49:02.143242200,0.5332421875,-5.538949012756348,-0.9817207455635072,1.6772277355194092
2024-12-04 21:49:02.153269200,0.543269287109375,-4.431443214416504,-0.5821154117584229,1.7868019342422483
2024-12-04 21:49:02.163295200,0.553295166015625,-3.970076560974121,0.2217669188976287,2.223325490951538
2024-12-04 21:49:02.173321200,0.5633212890625,-4.079801559448242,0.8869644403457642,2.7960243225097656
2024-12-04 21:49:02.183347200,0.57334716796875,-4.204737186431885,1.1181910037994385,2.9091572761535645
2024-12-04 21:49:02.193373400,0.58337353515625,-4.049417018890381,0.9741131663322448,2.8991379737854004
2024-12-04 21:49:02.203399400,0.5933994140625,-3.52531099319458,0.8855814337730408,2.924504041671753
2024-12-04 21:49:02.213425400,0.60342529296875,-2.643886089324951,1.3533999919891355,2.6105802059173584
2024-12-04 21:49:02.223451400,0.613451416015625,-1.494841694831848,2.192757368087769,2.4766604900360107
2024-12-04 21:49:02.233477400,0.623477294921875,-0.2203881442546844,3.285179376602173,2.5660719871521
2024-12-04 21:49:02.243504400,0.63350439453125,1.126776099205017,4.431064128875732,2.6226303577423096
2024-12-04 21:49:02.253530400,0.6435302734375,2.5610177516937256,5.423731327056885,2.4644980430603027
2024-12-04 21:49:02.263556400,0.653556396484375,3.774168014526367,6.477852821350098,1.969107747077942
2024-12-04 21:49:02.273582300,0.663582275390625,5.112678050994873,7.647366523742676,1.5222499370574951
2024-12-04 21:49:02.283608300,0.6736083984375,6.285358428955078,8.453514099121094,1.3746641874313354
2024-12-04 21:49:02.293634300,0.68363427734375,7.094547748565674,8.955119132995605,1.291655659675598
2024-12-04 21:49:02.303660300,0.693660400390625,7.5446624755859375,8.70913028717041,1.848199248313904
2024-12-04 21:49:02.313686300,0.703686279296875,7.534243583679199,7.1242547035217285,2.881666660308838
2024-12-04 21:49:02.323712300,0.713712158203125,7.104248046875,5.432087421417236,3.8183112144470215
2024-12-04 21:49:02.333738200,0.72373828125,6.556212902069092,4.803960800170898,4.217591285705566
2024-12-04 21:49:02.343765200,0.73376513671875,5.605623245239258,4.6464152336120605,3.74037766456604
2024-12-04 21:49:02.353791200,0.743791259765625,4.778309345245361,3.9921486377716064,3.183913469314575
2024-12-04 21:49:02.363817500,0.7538173828125,4.142226219177246,3.064185619354248,2.799459934234619
2024-12-04 21:49:02.373843500,0.763843505859375,3.6918110847473145,2.4666898250579834,2.227166175842285
2024-12-04 21:49:02.383869400,0.773869384765625,3.4995031356811523,1.9292458295822144,1.4810718297958374
2024-12-04 21:49:02.393895400,0.7838955078125,3.368356943130493,1.5620415210723877,0.6940010786056519
2024-12-04 21:49:02.403921400,0.79392138671875,2.985437154769897,1.438187837600708,-0.0845564380288124
2024-12-04 21:49:02.413947400,0.803947509765625,2.2834417819976807,1.622605800628662,-0.6466742753982544
2024-12-04 21:49:02.423973400,0.813973388671875,1.4832186698913574,1.637434005737305,-0.9650716781616212
2024-12-04 21:49:02.434000100,0.824000244140625,0.8459572196006775,1.478961706161499,-1.0919559001922607
2024-12-04 21:49:02.444026000,0.834026123046875,0.3872373104095459,1.327143669128418,-1.0700852870941162
2024-12-04 21:49:02.454052400,0.84405224609375,-0.0748144462704658,1.0474538803100586,-0.8400101661682129
2024-12-04 21:49:02.464078300,0.854078369140625,-0.5855205655097961,0.7440031170845032,-0.5686995983123779
2024-12-04 21:49:02.474104300,0.864104248046875,-1.26867413520813,0.5281783938407898,-0.1936769634485244
2024-12-04 21:49:02.484130300,0.87413037109375,-2.05081844329834,0.1854266673326492,0.2338639944791793
2024-12-04 21:49:02.494156300,0.88415625,-2.5284299850463867,0.2946893572807312,0.4251272082328796
2024-12-04 21:49:02.504182300,0.894182373046875,-2.4261891841888428,1.0394586324691772,0.169416069984436
2024-12-04 21:49:02.514208300,0.904208251953125,-1.6742913722991943,1.730520725250244,-0.4618696570396423
2024-12-04 21:49:02.524235300,0.9142353515625,-0.7319093942642212,1.4303832054138184,-1.181801199913025
2024-12-04 21:49:02.534261200,0.92426123046875,0.0100146820768713,0.4845539033412933,-1.8282549381256104
2024-12-04 21:49:02.544287500,0.93428759765625,0.3034356534481048,-0.4688740074634552,-2.427722692489624
2024-12-04 21:49:02.554313500,0.9443134765625,0.1866116523742675,-1.0205446481704712,-3.127877712249756
2024-12-04 21:49:02.564339500,0.95433935546875,-0.3842869699001312,-1.2215818166732788,-4.0274810791015625
2024-12-04 21:49:02.574365400,0.964365478515625,-1.331003189086914,-1.204090595245361,-5.18436336517334
2024-12-04 21:49:02.584391400,0.974391357421875,-2.323958396911621,-1.2899527549743652,-6.259699821472168
2024-12-04 21:49:02.594417400,0.98441748046875,-3.108109474182129,-1.7633851766586304,-6.892233371734619
2024-12-04 21:49:02.604443400,0.994443359375,-3.85730504989624,-2.360565185546875,-7.192224502563477
2024-12-04 21:49:02.614469400,1.004469482421875,-4.561544895172119,-2.679011344909668,-7.387517929077148
2024-12-04 21:49:02.624496000,1.01449609375,-5.104187965393066,-2.697434663772583,-7.382786750793457
2024-12-04 21:49:02.634522400,1.0245224609375,-5.369629859924316,-2.558912754058838,-7.023812294006348
2024-12-04 21:49:02.644548400,1.03454833984375,-5.350601196289063,-2.4736428260803223,-6.384453773498535
2024-12-04 21:49:02.654574300,1.04457421875,-5.194269180297852,-2.6839945316314697,-5.566317558288574
2024-12-04 21:49:02.664600300,1.054600341796875,-4.976439952850342,-3.2090554237365723,-4.605081558227539
2024-12-04 21:49:02.674626300,1.064626220703125,-4.841594696044922,-3.933300018310547,-3.621727466583252
2024-12-04 21:49:02.684652300,1.07465234375,-4.825841903686523,-4.861948490142822,-2.8248088359832764
2024-12-04 21:49:02.694678300,1.08467822265625,-4.7949395179748535,-5.548097610473633,-2.259894609451294
2024-12-04 21:49:02.704704300,1.094704345703125,-4.737598896026611,-5.693665027618408,-1.7979466915130615
2024-12-04 21:49:02.714731500,1.1047314453125,-4.586014270782471,-5.152377128601074,-1.3695446252822876
2024-12-04 21:49:02.724757500,1.114757568359375,-4.3732099533081055,-4.3797712326049805,-0.8624151349067688
2024-12-04 21:49:02.734783500,1.124783447265625,-4.316378593444824,-3.723777294158936,-0.2420699149370193
2024-12-04 21:49:02.744809500,1.1348095703125,-4.51759147644043,-3.3504421710968018,0.4653626084327698
2024-12-04 21:49:02.754835500,1.14483544921875,-4.8007426261901855,-3.116908550262451,1.295750617980957
2024-12-04 21:49:02.764861400,1.154861328125,-5.121063709259033,-3.196789264678955,2.2222771644592285
2024-12-04 21:49:02.774887400,1.164887451171875,-5.324192047119141,-2.6954550743103027,2.915889024734497
2024-12-04 21:49:02.784913400,1.174913330078125,-5.167268753051758,-1.2239519357681274,2.9148080348968506
2024-12-04 21:49:02.794939400,1.184939453125,-4.775064468383789,0.5238720774650574,2.338718175888061
2024-12-04 21:49:02.804966400,1.19496630859375,-4.134358406066895,1.7632707357406616,1.7184356451034546
2024-12-04 21:49:02.814992400,1.204992431640625,-3.750945091247559,2.720414161682129,1.4955600500106812
2024-12-04 21:49:02.825018400,1.215018310546875,-3.677075147628784,4.035019397735596,1.8885585069656368
2024-12-04 21:49:02.835044400,1.22504443359375,-3.51285719871521,5.304520130157471,2.661181926727295
2024-12-04 21:49:02.845070300,1.2350703125,-2.9452853202819824,5.864970684051514,3.038841724395752
2024-12-04 21:49:02.855096600,1.2450966796875,-2.088706016540528,5.826443195343018,3.180556297302246
2024-12-04 21:49:02.865122600,1.25512255859375,-1.3999203443527222,5.483818054199219,3.0381882190704346
2024-12-04 21:49:02.875148800,1.265148681640625,-1.0253161191940308,5.293617248535156,2.6813161373138428
2024-12-04 21:49:02.885174800,1.2751748046875,-0.700661838054657,4.95147705078125,2.0382866859436035
2024-12-04 21:49:02.895200800,1.28520068359375,-0.3211674392223358,4.706555366516113,1.4278202056884766
2024-12-04 21:49:02.905227800,1.295227783203125,0.0928646326065063,4.833933830261231,0.9038392901420592
2024-12-04 21:49:02.915253800,1.305253662109375,0.998887836933136,5.117665767669678,0.4371998608112335
2024-12-04 21:49:02.925279700,1.31527978515625,2.417745351791382,5.779265403747559,0.2105997502803802
2024-12-04 21:49:02.935305500,1.325305419921875,4.061219215393066,6.168571949005127,0.5215705633163452
2024-12-04 21:49:02.945331500,1.33533154296875,4.794105529785156,6.003632068634033,0.8905736207962036
2024-12-04 21:49:02.955357700,1.345357666015625,4.793639183044434,6.081399917602539,1.0459856986999512
2024-12-04 21:49:02.965383700,1.3553837890625,4.246966361999512,6.093375205993652,1.0923670530319214
2024-12-04 21:49:02.975409700,1.36540966796875,4.255312442779541,6.258241653442383,1.3281244039535522
2024-12-04 21:49:02.985435600,1.375435546875,3.98429536819458,5.625884056091309,1.6624232530593872
2024-12-04 21:49:02.995461600,1.385461669921875,2.8298773765563965,5.079334735870361,1.4825363159179688
2024-12-04 21:49:03.005488600,1.395488525390625,2.2783143520355225,4.939823627471924,1.1396840810775757
2024-12-04 21:49:03.015514600,1.4055146484375,1.909685492515564,4.747618198394775,0.9967158436775208
2024-12-04 21:49:03.025540600,1.41554052734375,2.965388298034668,4.304774284362793,0.9207471013069152
2024-12-04 21:49:03.035566600,1.425566650390625,4.187514305114746,3.579537868499756,0.9282416701316832
2024-12-04 21:49:03.045592800,1.4355927734375,4.500596523284912,3.0275678634643555,0.3402647078037262
2024-12-04 21:49:03.055618800,1.445618896484375,4.501176357269287,2.152648448944092,-0.5061367750167847
2024-12-04 21:49:03.065644800,1.455644775390625,4.570410251617432,1.2939058542251587,-1.48404061794281
2024-12-04 21:49:03.075670800,1.4656708984375,4.587198734283447,0.4807469248771667,-2.224344491958618
2024-12-04 21:49:03.085696800,1.47569677734375,4.063642501831055,-0.06330606341362,-2.812612295150757
2024-12-04 21:49:03.095723500,1.4857236328125,3.402357578277588,-0.7543898224830627,-2.9842453002929688
2024-12-04 21:49:03.105749500,1.49574951171875,2.761246919631958,-1.4665809869766235,-2.794752836227417
2024-12-04 21:49:03.115775500,1.505775390625,2.028774738311768,-1.571223497390747,-2.937073230743408
2024-12-04 21:49:03.125801500,1.515801513671875,1.2295286655426023,-0.9911606311798096,-3.4012560844421387
2024-12-04 21:49:03.135827700,1.52582763671875,0.540730357170105,-0.3379658460617065,-3.830458641052246
2024-12-04 21:49:03.145853700,1.535853759765625,-0.0170290656387805,0.148811787366867,-3.839164972305298
2024-12-04 21:49:03.155879700,1.545879638671875,-0.7933063507080078,1.27223539352417,-3.251901865005493
2024-12-04 21:49:03.165905700,1.55590576171875,-1.5544698238372805,2.149033546447754,-2.2278892993927
2024-12-04 21:49:03.175931600,1.565931640625,-1.9879323244094849,2.3808839321136475,-0.9650512337684632
2024-12-04 21:49:03.185957600,1.57595751953125,-2.186010837554932,2.4740023612976074,0.2421386241912841
2024-12-04 21:49:03.195984600,1.585984619140625,-2.0366463661193848,2.5610451698303223,1.027517318725586
2024-12-04 21:49:03.206010600,1.5960107421875,-1.5707932710647583,2.3848347663879395,1.3331544399261477
2024-12-04 21:49:03.216036600,1.60603662109375,-0.8976770043373108,2.0720760822296143,1.2501965761184692
2024-12-04 21:49:03.226062800,1.616062744140625,-0.2471463829278946,1.5182331800460815,0.8661105036735535
2024-12-04 21:49:03.236088800,1.6260888671875,0.1846290528774261,1.0009183883666992,0.1768385618925094
2024-12-04 21:49:03.246114800,1.63611474609375,0.1952257603406906,0.4613068401813507,-0.6946204304695129
2024-12-04 21:49:03.256140800,1.646140869140625,-0.259651780128479,-0.2258622050285339,-1.4966514110565186
2024-12-04 21:49:03.266166800,1.656166748046875,-1.0306068658828735,-0.990803837776184,-2.25259017944336
2024-12-04 21:49:03.276192800,1.66619287109375,-1.9929437637329104,-1.624837040901184,-2.911712646484375
2024-12-04 21:49:03.286219500,1.676219482421875,-2.9682509899139404,-1.934489130973816,-3.411712646484375
2024-12-04 21:49:03.296245500,1.68624560546875,-3.8233137130737305,-2.361989736557007,-3.736997127532959
2024-12-04 21:49:03.306271700,1.696271728515625,-4.508299827575684,-2.774428367614746,-3.940308570861816
2024-12-04 21:49:03.316297700,1.706297607421875,-5.107249736785889,-3.196197271347046,-4.058661460876465
2024-12-04 21:49:03.326323700,1.71632373046875,-5.62178373336792,-3.5673248767852783,-4.102023124694824
2024-12-04 21:49:03.336349700,1.726349609375,-5.95009708404541,-4.025958061218262,-3.9966554641723633
2024-12-04 21:49:03.346375700,1.736375732421875,-5.891575336456299,-4.437825202941895,-3.621746778488159
2024-12-04 21:49:03.356401700,1.746401611328125,-5.546359539031982,-4.798719882965088,-2.9386556148529053
2024-12-04 21:49:03.366427600,1.756427734375,-5.08310079574585,-5.232463359832764,-2.0800814628601074
2024-12-04 21:49:03.376453600,1.76645361328125,-4.553329944610596,-5.357355117797852,-1.0688806772232056
2024-12-04 21:49:03.386480600,1.776480712890625,-4.001063346862793,-5.362407684326172,0.1165229976177215
2024-12-04 21:49:03.396507000,1.7865068359375,-3.496128559112549,-5.587726593017578,1.2709976434707642
2024-12-04 21:49:03.406532900,1.796532958984375,-3.179187536239624,-5.979647636413574,2.043022871017456
2024-12-04 21:49:03.416558800,1.806558837890625,-3.119845628738404,-6.304226398468018,2.3026223182678223
2024-12-04 21:49:03.426584800,1.816584716796875,-3.0519089698791504,-6.347020626068115,2.1352994441986084
2024-12-04 21:49:03.436610800,1.82661083984375,-2.8304409980773926,-5.810308456420898,1.3069511651992798
2024-12-04 21:49:03.446636800,1.83663671875,-2.5781712532043457,-5.03451681137085,-0.1917728036642074
2024-12-04 21:49:03.456662500,1.84666259765625,-2.5522918701171875,-4.054006576538086,-0.9470852613449096
2024-12-04 21:49:03.466688500,1.8566884765625,-2.893972396850586,-3.168257713317871,-0.8129841685295105
2024-12-04 21:49:03.476714500,1.866714599609375,-3.256669759750366,-2.2594094276428223,-0.2835440039634704
2024-12-04 21:49:03.486741800,1.87674169921875,-3.364919900894165,-1.7400456666946411,0.4698115587234497
2024-12-04 21:49:03.496767700,1.886767822265625,-3.0704541206359863,-1.3199678659439087,1.3286842107772827
2024-12-04 21:49:03.506793700,1.896793701171875,-2.662605762481689,-0.682224690914154,2.084007501602173
2024-12-04 21:49:03.516819700,1.90681982421875,-2.4413259029388428,0.1572179198265075,2.524643421173096
2024-12-04 21:49:03.526845700,1.916845703125,-2.3568685054779053,0.8415184617042542,2.566555976867676
2024-12-04 21:49:03.536871700,1.92687158203125,-2.492373466491699,1.1263117790222168,2.53975510597229
2024-12-04 21:49:03.546897700,1.936897705078125,-2.437324285507202,1.5004112720489502,2.394928216934204
2024-12-04 21:49:03.556923600,1.946923583984375,-2.032154321670532,1.7298284769058228,2.1878130435943604
2024-12-04 21:49:03.566949600,1.95694970703125,-1.4983296394348145,1.6940672397613523,2.053072929382324
2024-12-04 21:49:03.576977000,1.966976806640625,-1.125515341758728,1.4764840602874756,1.8995429277420044
2024-12-04 21:49:03.587003000,1.9770029296875,-0.9081703424453736,1.1467654705047607,1.4923008680343628
2024-12-04 21:49:03.597028600,1.987028564453125,-0.8157516121864319,0.6050843000411987,1.0593947172164917
2024-12-04 21:49:03.607054600,1.9970546875,-0.7530062198638916,0.0474394001066684,0.8476582169532776
2024-12-04 21:49:03.617080600,2.00708056640625,-0.6153793334960938,-0.2741860449314117,0.7954563498497009
2024-12-04 21:49:03.627106600,2.0171064453125,-0.3481833040714264,-0.2154819816350937,0.7579489350318909
2024-12-04 21:49:03.637132500,2.027132568359375,0.0950072780251503,0.2478818148374557,0.7229482531547546
2024-12-04 21:49:03.647158500,2.037158447265625,0.6615990400314331,1.0144665241241455,0.6325868964195251
2024-12-04 21:49:03.657184500,2.0471845703125,1.16625714302063,1.7760562896728516,0.3876908719539642
2024-12-04 21:49:03.667210500,2.05721044921875,1.5613514184951782,2.2295830249786377,0.2238033860921859
2024-12-04 21:49:03.677237800,2.06723779296875,2.035439968109131,2.65324330329895,0.194014087319374
2024-12-04 21:49:03.687263700,2.077263671875,2.5320756435394287,2.8353848457336426,0.160155177116394
2024-12-04 21:49:03.697289700,2.087289794921875,2.783679962158203,2.8210268020629883,0.0241324882954359
2024-12-04 21:49:03.707315700,2.097315673828125,2.670189380645752,3.1878836154937744,-0.2483299225568771
2024-12-04 21:49:03.717341700,2.107341796875,2.356349468231201,3.3060836791992188,-0.5218492150306702
2024-12-04 21:49:03.727367700,2.11736767578125,2.1576027870178223,3.050264596939087,-0.6444470882415771
2024-12-04 21:49:03.737393700,2.1273935546875,2.308262825012207,2.9422366619110107,-0.6006135940551758
2024-12-04 21:49:03.747419600,2.137419677734375,2.721938371658325,3.025961399078369,-0.3736750185489654
2024-12-04 21:49:03.757445600,2.147445556640625,3.144005060195923,3.0743651390075684,0.1095849946141243
2024-12-04 21:49:03.767471900,2.157471923828125,3.3396754264831543,3.381234645843506,0.6801214218139648
2024-12-04 21:49:03.777497900,2.167497802734375,3.2502782344818115,3.7651774883270255,0.9500654339790344
2024-12-04 21:49:03.787524600,2.177524658203125,2.949772596359253,3.630734920501709,1.0344349145889282
2024-12-04 21:49:03.797550600,2.187550537109375,2.450479745864868,3.244023084640503,0.9976627826690674
2024-12-04 21:49:03.807576600,2.19757666015625,1.935681819915772,2.678320407867432,0.9021538496017456
2024-12-04 21:49:03.817602600,2.2076025390625,1.5577278137207031,2.277038335800171,0.8045206665992737
2024-12-04 21:49:03.827628500,2.217628662109375,1.3461015224456787,2.050999641418457,0.7584309577941895
2024-12-04 21:49:03.837654500,2.227654541015625,1.3066837787628174,2.066490888595581,0.7461875081062317
2024-12-04 21:49:03.847680000,2.237679931640625,1.3677661418914795,2.219973564147949,0.7631710171699524
2024-12-04 21:49:03.857706000,2.2477060546875,1.581496238708496,2.249540328979492,0.9294089674949646
2024-12-04 21:49:03.867732000,2.25773193359375,2.237699270248413,2.4583499431610107,1.162062168121338
2024-12-04 21:49:03.877759000,2.267759033203125,2.7098779678344727,2.6833395957946777,1.0907044410705566
2024-12-04 21:49:03.887785200,2.27778515625,2.614583969116211,2.409038782119751,0.820283055305481
2024-12-04 21:49:03.897811200,2.287811279296875,2.0205113887786865,2.147744655609131,0.6024875640869141
2024-12-04 21:49:03.907837200,2.297837158203125,1.3201305866241455,1.8083138465881348,0.4713612496852875
2024-12-04 21:49:03.917863200,2.30786328125,0.8695498108863831,1.1915655136108398,0.3793029487133026
2024-12-04 21:49:03.927889200,2.31788916015625,0.659822404384613,0.6888008713722229,0.3142277896404266
2024-12-04 21:49:03.937915100,2.3279150390625,0.538567841053009,0.2432051450014114,0.2596934139728546
2024-12-04 21:49:03.947941000,2.337941162109375,0.4607985317707062,-0.1656031310558319,0.2409373074769973
2024-12-04 21:49:03.957967000,2.347967041015625,0.4004739820957184,-0.4262761771678924,0.2408939450979232
2024-12-04 21:49:03.967993000,2.3579931640625,0.4692096412181854,-0.4418239593505859,0.235628068447113
2024-12-04 21:49:03.978020000,2.36802001953125,0.6689968705177307,-0.2891702055931091,0.2317261695861816
2024-12-04 21:49:03.988046000,2.378046142578125,0.8617026805877686,-0.05400375649333,0.2726203501224518
2024-12-04 21:49:03.998072000,2.388072021484375,0.9661595225334167,0.2718597650527954,0.3636236786842346
2024-12-04 21:49:04.008098000,2.39809814453125,1.020992398262024,0.613494336605072,0.4784021973609924
2024-12-04 21:49:04.018124000,2.4081240234375,0.9629785418510436,0.7328920960426331,0.5698708891868591
2024-12-04 21:49:04.028150000,2.41814990234375,0.7018712759017944,0.7177517414093018,0.5783911347389221
2024-12-04 21:49:04.038176000,2.428176025390625,0.2434419095516204,0.7552549839019775,0.4855860769748688
2024-12-04 21:49:04.048202000,2.438201904296875,-0.4485389292240143,0.8495998382568359,0.3604230880737304
2024-12-04 21:49:04.058228000,2.44822802734375,-1.1410224437713623,0.8018855452537537,0.3787617981433868
2024-12-04 21:49:04.068254000,2.45825390625,-1.618861436843872,0.8803291916847229,0.6679102778434753
2024-12-04 21:49:04.078280000,2.468280029296875,-1.8325426578521729,0.9899601340293884,1.1514215469360352
2024-12-04 21:49:04.088307200,2.47830712890625,-1.9008774757385247,0.4303910732269287,1.5957229137420654
2024-12-04 21:49:04.098333200,2.488333251953125,-2.003748893737793,-0.2577061057090759,1.8077257871627808
2024-12-04 21:49:04.108359200,2.498359130859375,-2.206627607345581,-0.5091686844825745,2.45047664642334
2024-12-04 21:49:04.118385200,2.50838525390625,-2.036106586456299,-0.8230431079864502,2.950166702270508
2024-12-04 21:49:04.128411100,2.5184111328125,-1.880351185798645,-1.2690967321395874,2.6562907695770264
2024-12-04 21:49:04.138437000,2.52843701171875,-2.1811890602111816,-1.5163094997406006,1.95455265045166
2024-12-04 21:49:04.148463000,2.538463134765625,-2.5593693256378174,-1.6079974174499512,1.2632615566253662
2024-12-04 21:49:04.158489000,2.548489013671875,-2.6419754028320312,-1.8575432300567627,0.7606529593467712
2024-12-04 21:49:04.168515300,2.558515380859375,-2.250818490982056,-2.204143047332764,0.3457702696323395
2024-12-04 21:49:04.178541000,2.568541015625,-1.4981650114059448,-2.431964635848999,-0.0593011826276779
2024-12-04 21:49:04.188568000,2.578568115234375,-0.5852797627449036,-2.5399608612060547,-0.6438003182411194
2024-12-04 21:49:04.198594000,2.588593994140625,0.214648351073265,-2.40960955619812,-1.3005976676940918
2024-12-04 21:49:04.208620000,2.5986201171875,0.808901846408844,-2.040158033370972,-1.8082643747329712
2024-12-04 21:49:04.218646000,2.60864599609375,1.2722889184951782,-1.5782932043075562,-2.075134992599488
2024-12-04 21:49:04.228672000,2.618672119140625,1.628421187400818,-0.905017077922821,-2.0474600791931152
2024-12-04 21:49:04.238698000,2.628697998046875,1.927824139595032,-0.0458555743098259,-1.7472598552703855
2024-12-04 21:49:04.248724000,2.638723876953125,2.260958909988404,0.752149760723114,-1.3386154174804688
2024-12-04 21:49:04.258750200,2.648750244140625,2.580854177474976,1.5682944059371948,-0.9551328420639038
2024-12-04 21:49:04.268776200,2.658776123046875,2.6998767852783203,2.406850814819336,-0.7052154541015625
2024-12-04 21:49:04.278802200,2.66880224609375,2.6136186122894287,3.151766300201416,-0.5802294015884399
2024-12-04 21:49:04.288829200,2.6788291015625,2.4631948471069336,3.610208511352539,-0.5606474280357361
2024-12-04 21:49:04.298855200,2.688855224609375,2.277763605117798,3.70416522026062,-0.6447343826293945
2024-12-04 21:49:04.308881200,2.698881103515625,2.122518301010132,3.576366901397705,-0.789800763130188
2024-12-04 21:49:04.318907100,2.7089072265625,2.0314834117889404,3.193511486053467,-0.9801250100135804
2024-12-04 21:49:04.328933000,2.71893310546875,2.129828453063965,2.8847811222076416,-1.2001793384552002
2024-12-04 21:49:04.338959000,2.728958984375,2.38833999633789,2.567456245422364,-1.4465529918670654
2024-12-04 21:49:04.348985000,2.738985107421875,2.592234373092652,1.972078442573548,-1.7883135080337524
2024-12-04 21:49:04.359011000,2.749010986328125,2.890756607055664,1.656609058380127,-2.027894973754883
2024-12-04 21:49:04.369037000,2.759037109375,3.052828073501587,1.4768691062927246,-2.2254769802093506
2024-12-04 21:49:04.379063000,2.76906298828125,2.764692544937134,1.2476273775100708,-2.516497611999512
2024-12-04 21:49:04.389090000,2.779090087890625,1.9115206003189087,0.9374828934669496,-2.746486186981201
2024-12-04 21:49:04.399116000,2.789115966796875,0.8634967803955078,0.5350457429885864,-2.840526580810547
2024-12-04 21:49:04.409142000,2.79914208984375,0.3382574617862701,0.0271471366286277,-2.850813150405884
2024-12-04 21:49:04.419168000,2.80916796875,0.6909779906272888,-0.6839079260826111,-2.849996566772461
2024-12-04 21:49:04.429194000,2.819194091796875,1.3778694868087769,-1.1917970180511477,-2.9822232723236084
2024-12-04 21:49:04.439220200,2.82922021484375,1.9446370601654053,-1.3784785270690918,-3.240438938140869
2024-12-04 21:49:04.449246200,2.83924609375,2.309936761856079,-1.4320456981658936,-3.6808133125305176
2024-12-04 21:49:04.459272200,2.849272216796875,2.5725722312927246,-1.3213235139846802,-4.099692344665527
2024-12-04 21:49:04.469298200,2.859298095703125,2.7392702102661133,-1.6801708936691284,-4.009902000427246
2024-12-04 21:49:04.479324200,2.86932421875,2.7903172969818115,-1.9778565168380733,-3.608515977859497
2024-12-04 21:49:04.489350100,2.87935009765625,2.508671283721924,-1.281406044960022,-2.96612548828125
2024-12-04 21:49:04.499377000,2.889376953125,2.0304200649261475,-0.4386741518974304,-2.0723609924316406
2024-12-04 21:49:04.509403000,2.89940283203125,1.5659867525100708,0.2429385185241699,-0.9358286261558532
2024-12-04 21:49:04.519429000,2.90942919921875,1.29372239112854,0.8806704878807068,0.3724491894245147
2024-12-04 21:49:04.529455000,2.919455078125,1.0936659574508667,1.4213944673538208,1.7098863124847412
2024-12-04 21:49:04.539481000,2.929481201171875,0.7286787033081055,1.5412219762802124,2.823511838912964
2024-12-04 21:49:04.549507000,2.939507080078125,0.0062877405434846,1.3231014013290403,3.533164501190185
2024-12-04 21:49:04.559533000,2.949532958984375,-1.0583921670913696,0.974436581134796,3.8509795665740967
2024-12-04 21:49:04.569559000,2.95955908203125,-2.110347270965576,0.7020397186279297,3.704077243804932
2024-12-04 21:49:04.579585000,2.9695849609375,-2.9195446968078613,0.6307300329208374,2.9578969478607178
2024-12-04 21:49:04.589611000,2.979611083984375,-3.4422621726989746,0.4527201056480407,1.7327607870101929
2024-12-04 21:49:04.599638000,2.989637939453125,-3.767709732055664,0.0727364718914032,0.3868721425533294
2024-12-04 21:49:04.609664300,2.999664306640625,-4.068855285644531,-0.4998242855072021,-0.7482507228851318
2024-12-04 21:49:04.619690200,3.009690185546875,-4.5861897468566895,-1.0864564180374146,-1.4794141054153442
2024-12-04 21:49:04.629716200,3.01971630859375,-5.361573696136475,-1.6939620971679688,-1.937698006629944
2024-12-04 21:49:04.639742200,3.0297421875,-6.140717029571533,-2.400927782058716,-2.242713451385498
2024-12-04 21:49:04.649768200,3.039768310546875,-6.575730800628662,-3.1699557304382324,-2.3528568744659424
2024-12-04 21:49:04.659794200,3.049794189453125,-6.454843997955322,-3.695105791091919,-2.0824649333953857
2024-12-04 21:49:04.669820200,3.059820068359375,-5.846728324890137,-3.8105428218841553,-1.1569242477416992
2024-12-04 21:49:04.679846100,3.06984619140625,-5.200194835662842,-3.714069128036499,0.2266531437635421
2024-12-04 21:49:04.689872100,3.0798720703125,-4.811056613922119,-3.2747621536254883,1.5809332132339478
2024-12-04 21:49:04.699899100,3.089899169921875,-4.580502510070801,-2.5862653255462646,2.5801618099212646
2024-12-04 21:49:04.709925000,3.099925048828125,-4.364041328430176,-2.099763870239258,3.181535720825196
2024-12-04 21:49:04.719951000,3.109951171875,-4.174352169036865,-1.4926844835281372,3.416453123092652
2024-12-04 21:49:04.729977000,3.11997705078125,-4.000241756439209,-1.2582522630691528,3.430579662322998
2024-12-04 21:49:04.740003000,3.130003173828125,-3.692842960357666,-1.3899158239364624,3.225071907043457
2024-12-04 21:49:04.750029000,3.140029052734375,-3.2351186275482178,-1.2096019983291626,2.9982564449310303
2024-12-04 21:49:04.760055000,3.150054931640625,-2.6841042041778564,-1.1469430923461914,2.8168060779571533
2024-12-04 21:49:04.770081000,3.1600810546875,-2.071089029312134,-0.7565070986747742,2.9495365619659424
2024-12-04 21:49:04.780107000,3.17010693359375,-1.2787890434265137,-0.4418821930885315,3.13857650756836
2024-12-04 21:49:04.790133000,3.180133056640625,-0.4342154264450073,-0.2545210719108581,2.37303113937378
2024-12-04 21:49:04.800160300,3.19016015625,0.0849082991480827,-0.0853303000330925,0.4463134109973907
2024-12-04 21:49:04.810186200,3.200186279296875,0.3369290828704834,0.2688765227794647,-1.2420809268951416
2024-12-04 21:49:04.820212200,3.210212158203125,0.6964712738990784,1.0649582147598269,-1.321688890457153
2024-12-04 21:49:04.830238200,3.22023828125,1.2195470333099363,2.015512704849243,-0.5576591491699219
2024-12-04 21:49:04.840264200,3.23026416015625,1.6380650997161863,3.179010391235352,0.0421614907681942
2024-12-04 21:49:04.850290200,3.240290283203125,1.8298083543777464,4.12338399887085,0.2866135835647583
2024-12-04 21:49:04.860316200,3.250316162109375,1.823388814926148,4.759052753448486,0.3868697583675384
2024-12-04 21:49:04.870342100,3.260342041015625,1.867889642715454,5.06260871887207,0.4281812310218811
2024-12-04 21:49:04.880367900,3.270367919921875,2.136839866638184,4.843601703643799,0.3069802522659302
2024-12-04 21:49:04.890393900,3.280393798828125,2.54450798034668,4.052532196044922,0.149525374174118
2024-12-04 21:49:04.900419800,3.290419921875,3.078519344329834,2.759190320968628,-0.0399957858026027
2024-12-04 21:49:04.910447000,3.300447021484375,3.7599880695343018,1.4786797761917114,-0.6623890399932861
2024-12-04 21:49:04.920473000,3.31047314453125,3.992986440658569,0.3140632808208465,-1.301219820976257
2024-12-04 21:49:04.930499000,3.3204990234375,4.226404190063477,-0.7585842609405518,-1.805908799171448
2024-12-04 21:49:04.940525000,3.330525146484375,3.9589650630950928,-1.227973699569702,-2.0051872730255127
2024-12-04 21:49:04.950551000,3.340551025390625,2.7284798622131348,-1.2155555486679075,-2.0921638011932373
2024-12-04 21:49:04.960577000,3.350576904296875,1.902686357498169,-0.8875718712806702,-2.009741306304932
2024-12-04 21:49:04.970603000,3.36060302734375,1.7360328435897827,-0.579607367515564,-1.5759131908416748
2024-12-04 21:49:04.980629000,3.37062890625,1.959937334060669,-0.1626556813716888,-1.2091712951660156
2024-12-04 21:49:04.990655000,3.380655029296875,1.768890142440796,0.2027185559272766,-0.9051592946052552
2024-12-04 21:49:05.000681200,3.39068115234375,1.2482407093048096,0.4533538222312927,-0.8843237161636353
2024-12-04 21:49:05.010708000,3.4007080078125,0.6371656656265259,0.735697329044342,-0.9003114700317383
2024-12-04 21:49:05.020734000,3.41073388671875,0.0763629078865051,0.9874686002731324,-0.949488401412964
2024-12-04 21:49:05.030760000,3.420760009765625,-0.3526625037193298,1.3816633224487305,-1.08036470413208
2024-12-04 21:49:05.040786000,3.430785888671875,-0.6985409259796143,2.106101751327514,-1.0008279085159302
2024-12-04 21:49:05.050812000,3.44081201171875,-1.062888741493225,3.034452199935913,-0.7533292174339294
2024-12-04 21:49:05.060838000,3.450837890625,-1.2158581018447876,3.2685351371765137,-0.7559744715690613
2024-12-04 21:49:05.070864000,3.46086376953125,-1.1862891912460327,2.525667905807495,-0.9734548926353456
2024-12-04 21:49:05.080889900,3.470889892578125,-1.0530928373336792,1.618260622024536,-1.110854983329773
2024-12-04 21:49:05.090916000,3.480916015625,-0.8698567748069763,0.3066284954547882,-1.1327791213989258
2024-12-04 21:49:05.100942000,3.490942138671875,-0.8859456181526184,-0.1697814613580703,-1.1140176057815552
2024-12-04 21:49:05.110968000,3.500968017578125,-1.1218841075897217,-0.1641917526721954,-1.0766897201538086
2024-12-04 21:49:05.120995000,3.5109951171875,-1.4797555208206177,-0.0810621604323387,-1.0635143518447876
2024-12-04 21:49:05.131021000,3.52102099609375,-1.9324852228164675,-0.072276659309864,-1.03358256816864
2024-12-04 21:49:05.141047000,3.531047119140625,-2.452822685241699,-0.1835876852273941,-1.0097540616989136
2024-12-04 21:49:05.151073000,3.541072998046875,-3.017836809158325,-0.6109741926193237,-0.9893701672554016
2024-12-04 21:49:05.161099000,3.55109912109375,-3.4856209754943848,-0.9452927112579346,-0.9690621495246888
2024-12-04 21:49:05.171125000,3.561125,-3.604899883270264,-0.8101311326026917,-0.9983691573143004
2024-12-04 21:49:05.181151200,3.571151123046875,-3.411283016204834,-0.3873661160469055,-1.0286215543746948
2024-12-04 21:49:05.191177200,3.58117724609375,-3.0754706859588623,0.3078222572803497,-0.9616289138793944
2024-12-04 21:49:05.201203200,3.591203125,-2.693460464477539,0.7971347570419312,-0.6533880233764648
2024-12-04 21:49:05.211229200,3.601229248046875,-2.199537754058838,0.9790859222412108,-0.2428872734308242
2024-12-04 21:49:05.221256000,3.611255859375,-1.6131587028503418,0.9470746517181396,0.1251367479562759
2024-12-04 21:49:05.231282000,3.621281982421875,-1.0194727182388306,0.5503177046775818,0.4415141344070434
2024-12-04 21:49:05.241308000,3.631307861328125,-0.5625910758972168,-0.0893123224377632,0.7170388698577881
2024-12-04 21:49:05.251334000,3.641333984375,-0.3936441540718078,-1.0208522081375122,0.8961060643196106
2024-12-04 21:49:05.261359900,3.65135986328125,-0.4050629138946533,-1.2259241342544556,0.9937855005264282
2024-12-04 21:49:05.271386000,3.66138623046875,-0.5854292511940002,-0.3919478058815002,1.1018831729888916
2024-12-04 21:49:05.281412000,3.671412109375,-1.061775803565979,0.5495257377624512,1.2109977006912231
2024-12-04 21:49:05.291438000,3.68143798828125,-1.3607993125915527,1.2696250677108765,1.2200812101364136
2024-12-04 21:49:05.301464000,3.691464111328125,-1.4926934242248535,1.6963679790496826,1.1586356163024902
2024-12-04 21:49:05.311490000,3.701489990234375,-1.74728262424469,1.9035643339157104,1.0983061790466309
2024-12-04 21:49:05.321516000,3.71151611328125,-1.9568166732788088,1.9241489171981807,0.9892838597297668
2024-12-04 21:49:05.331543000,3.72154296875,-1.6858121156692505,2.013063669204712,0.7262831330299377
2024-12-04 21:49:05.341569000,3.731569091796875,-1.0441359281539917,1.712890386581421,0.4190590679645538
2024-12-04 21:49:05.351595300,3.74159521484375,-0.5108723044395447,0.9734695553779602,0.1422008275985717
2024-12-04 21:49:05.361621200,3.751621337890625,-0.5172785520553589,0.0728281214833259,-0.1479343920946121
2024-12-04 21:49:05.371647200,3.761647216796875,-0.9269265532493592,-0.3536603450775146,-0.2525082230567932
2024-12-04 21:49:05.381673200,3.771673095703125,-1.2855277061462402,-0.4857401251792907,-0.1082844287157058
2024-12-04 21:49:05.391699200,3.78169921875,-1.3304296731948853,-0.3678745031356811,0.1763017624616623
2024-12-04 21:49:05.401725000,3.791724853515625,-1.010076880455017,0.2678425014019012,0.5636433362960815
2024-12-04 21:49:05.411751000,3.8017509765625,-0.4420084059238434,1.5951344966888428,1.0864442586898804
2024-12-04 21:49:05.421777000,3.81177685546875,0.4344878196716308,2.9610960483551025,1.437738299369812
2024-12-04 21:49:05.431804000,3.821803955078125,1.7423862218856812,3.955697536468506,1.5071711540222168
2024-12-04 21:49:05.441830100,3.831830078125,2.78475284576416,4.395246982574463,1.0495779514312744
2024-12-04 21:49:05.451856100,3.841856201171875,2.96980881690979,4.990591049194336,0.0775605887174606
2024-12-04 21:49:05.461882000,3.851882080078125,2.456298828125,4.898285865783691,-0.9216196537017822
2024-12-04 21:49:05.471908000,3.861908203125,1.4273502826690674,4.578731536865234,-1.494314670562744
2024-12-04 21:49:05.481934000,3.87193408203125,0.336685448884964,3.996170997619629,-1.788193702697754
2024-12-04 21:49:05.491960000,3.8819599609375,-0.4921035766601562,3.250523805618286,-1.952283263206482
2024-12-04 21:49:05.501986000,3.891986083984375,-0.9142267107963562,1.7585866451263428,-1.9375141859054563
2024-12-04 21:49:05.512012000,3.902011962890625,-1.1631639003753662,-0.1231073886156082,-1.753083109855652
2024-12-04 21:49:05.522038000,3.9120380859375,-1.4719589948654177,-1.7945996522903442,-1.455150485038757
2024-12-04 21:49:05.532065300,3.922065185546875,-1.654401779174805,-2.7668821811676025,-1.1609694957733154
2024-12-04 21:49:05.542091000,3.932091064453125,-1.6590665578842163,-2.770649671554565,-0.9722805619239808
2024-12-04 21:49:05.552117000,3.942116943359375,-1.4276458024978638,-1.7117751836776731,-0.833051323890686
2024-12-04 21:49:05.562143000,3.95214306640625,-0.9764875769615172,-0.530839741230011,-0.8054294586181641
2024-12-04 21:49:05.572169000,3.9621689453125,-0.4976160824298858,0.1842437833547592,-0.751271665096283
2024-12-04 21:49:05.582195000,3.97219482421875,-0.2678409516811371,0.5900588631629944,-0.5548782348632812
2024-12-04 21:49:05.592221000,3.982220947265625,-0.2762762308120727,0.5170201063156128,-0.4442715346813202
2024-12-04 21:49:05.602247000,3.992246826171875,-0.4813034832477569,0.4145830273628235,-0.5399242043495178
2024-12-04 21:49:05.612273000,4.00227294921875,-0.7293444871902466,0.6656128764152527,-0.8170607089996338
2024-12-04 21:49:05.622299000,4.012298828125,-0.9696866869926452,1.1823875904083252,-1.0859795808792114
2024-12-04 21:49:05.632324900,4.022324951171875,-1.393993258476257,1.6282918453216553,-1.201576828956604
2024-12-04 21:49:05.642352000,4.03235205078125,-2.3910298347473145,1.6784855127334597,-1.3785265684127808
2024-12-04 21:49:05.652378000,4.042378173828125,-3.6676666736602783,2.527187824249268,-1.332916021347046
2024-12-04 21:49:05.662404000,4.052404052734375,-4.441500186920166,3.4974520206451416,-0.589967668056488
2024-12-04 21:49:05.672430000,4.06243017578125,-4.8570733070373535,5.057296276092529,0.9980158805847168
2024-12-04 21:49:05.682456000,4.0724560546875,-4.815287590026856,5.374841690063477,2.2444417476654053
2024-12-04 21:49:05.692482000,4.08248193359375,-4.0571489334106445,1.9249653816223145,1.6581252813339231
2024-12-04 21:49:05.702508000,4.092508056640625,-3.351590871810913,-0.5558282732963562,1.226356863975525
2024-12-04 21:49:05.712534000,4.102533935546875,-3.1038732528686523,-2.339324712753296,0.8844189047813416
2024-12-04 21:49:05.722560300,4.112560302734375,-3.0739903450012207,-3.319706439971924,0.4647282063961029
2024-12-04 21:49:05.732586200,4.122586181640625,-2.8878722190856934,-3.788100242614746,-0.0433637723326683
2024-12-04 21:49:05.742612200,4.1326123046875,-2.584212064743042,-3.8284780979156494,-0.4967212378978729
2024-12-04 21:49:05.752639000,4.142638916015625,-2.273871660232544,-3.817251443862915,-0.9521026015281676
2024-12-04 21:49:05.762665000,4.1526650390625,-1.9742414951324463,-3.5308804512023926,-1.2142623662948608
2024-12-04 21:49:05.772691000,4.16269091796875,-1.6862003803253174,-3.0923566818237305,-1.3550480604171753
2024-12-04 21:49:05.782717000,4.172717041015625,-1.458566427230835,-2.577552080154419,-1.5024642944335938
2024-12-04 21:49:05.792743000,4.182742919921875,-1.275052785873413,-2.271820545196533,-1.7059262990951538
2024-12-04 21:49:05.802769000,4.192768798828125,-1.0685139894485474,-2.4283134937286377,-1.7454211711883545
2024-12-04 21:49:05.812795100,4.202795166015625,-0.7113784551620483,-2.255429983139038,-0.4791606962680816
2024-12-04 21:49:05.822821000,4.212821044921875,-0.2982346713542938,-2.1034910678863525,0.7459792494773865
2024-12-04 21:49:05.832847000,4.22284716796875,-0.1584533303976059,-1.832432746887207,1.1848742961883545
2024-12-04 21:49:05.842873000,4.232873046875,-0.3037471175193786,-1.5243067741394043,1.118107557296753
2024-12-04 21:49:05.852900900,4.24290087890625,-0.6030846238136292,-1.3038442134857178,0.7778676748275757
2024-12-04 21:49:05.862926800,4.2529267578125,-0.9389113187789916,-0.8041144013404846,0.3480902910232544
2024-12-04 21:49:05.872952600,4.26295263671875,-1.088023662567139,-0.1901388168334961,-0.0480195023119449
2024-12-04 21:49:05.882978600,4.272978515625,-0.8395369648933411,0.1323573887348175,-0.2173932194709777
2024-12-04 21:49:05.893004500,4.283004638671875,-0.4381056427955627,0.1986908763647079,-0.194513738155365
2024-12-04 21:49:05.903030500,4.293030517578125,-0.0994941890239715,0.3616735339164734,-0.1650270223617553
2024-12-04 21:49:05.913056500,4.303056396484375,0.0918363556265831,0.4647061824798584,-0.0737452954053878
2024-12-04 21:49:05.923082800,4.313082763671875,0.3069160282611847,0.5431498289108276,-0.2689604163169861
2024-12-04 21:49:05.933108700,4.323108642578125,0.4259926080703735,0.653622031211853,-0.5528547167778015
2024-12-04 21:49:05.943134700,4.333134765625,0.438755065202713,0.6822784543037415,-0.6300089359283447
2024-12-04 21:49:05.953160700,4.34316064453125,0.4235350787639618,0.5647510290145874,-0.4687353074550628
2024-12-04 21:49:05.963187700,4.353187744140625,0.5200123190879822,0.312283307313919,-0.3887428939342499
2024-12-04 21:49:05.973213700,4.363213623046875,0.5653265118598938,0.0878336653113365,-0.3831294775009155
2024-12-04 21:49:05.983239700,4.37323974609375,0.4436520338058471,-0.1904221922159195,-0.2643288075923919
2024-12-04 21:49:05.993265700,4.383265625,0.1637506037950515,-0.7712754607200623,0.1890109926462173
2024-12-04 21:49:06.003291600,4.393291748046875,-0.0865205973386764,-1.4484459161758425,0.2795419692993164
2024-12-04 21:49:06.013318000,4.40331787109375,-0.2668924927711487,-1.4658299684524536,0.3080551028251648
2024-12-04 21:49:06.023343900,4.41334375,-0.378734141588211,-1.7826454639434814,1.1436808109283447
2024-12-04 21:49:06.033369900,4.423369873046875,-0.3401721119880676,-2.4023449420928955,1.910299181938172
2024-12-04 21:49:06.043395800,4.433395751953125,-0.1499112993478775,-2.910804748535156,2.137787103652954
2024-12-04 21:49:06.053421800,4.443421875,-0.038732573390007,-3.2684202194213867,1.91881000995636
2024-12-04 21:49:06.063447800,4.45344775390625,-0.0639157965779304,-3.206711769104004,1.4700791835784912
2024-12-04 21:49:06.073474600,4.463474609375,-0.2271569073200225,-2.5996272563934326,0.9171674251556396
2024-12-04 21:49:06.083500500,4.47350048828125,-0.4650509655475616,-1.731439232826233,0.359469324350357
2024-12-04 21:49:06.093526500,4.483526611328125,-0.7660955190658569,-0.7577404379844666,-0.1380549669265747
2024-12-04 21:49:06.103552800,4.493552734375,-1.0695596933364868,0.0859496369957923,-0.3264952003955841
2024-12-04 21:49:06.113578800,4.503578857421875,-1.495161533355713,0.3734173476696014,-0.6273732781410217
2024-12-04 21:49:06.123604700,4.513604736328125,-1.7269821166992188,0.1166654601693153,-1.150550365447998
2024-12-04 21:49:06.133630700,4.523630615234375,-1.647099852561951,0.041258055716753,-1.2529866695404053
2024-12-04 21:49:06.143656700,4.53365673828125,-1.4337503910064695,0.1273989230394363,-0.9111753106117249
2024-12-04 21:49:06.153682700,4.5436826171875,-1.3592567443847656,-0.0978493690490722,-0.723029613494873
2024-12-04 21:49:06.163708700,4.553708740234375,-1.578551173210144,-0.3009320795536041,-0.7842020988464355
2024-12-04 21:49:06.173735700,4.563735595703125,-2.124847650527954,-0.2186044603586197,-0.8976788520812988
2024-12-04 21:49:06.183761700,4.57376171875,-3.063645362854004,0.0284800752997398,-1.0168399810791016
2024-12-04 21:49:06.193788000,4.583787841796875,-3.2237823009490967,0.290323942899704,-0.4499751925468445
2024-12-04 21:49:06.203814000,4.59381396484375,-2.954941272735596,0.3167620897293091,0.471208781003952
2024-12-04 21:49:06.213840000,4.60383984375,-2.909227132797241,0.1966599375009536,1.2988550662994385
2024-12-04 21:49:06.223865900,4.613865966796875,-2.8873631954193115,0.2785288691520691,2.0224947929382324
2024-12-04 21:49:06.233891800,4.623891845703125,-2.774688482284546,0.491286426782608,2.610279083251953
2024-12-04 21:49:06.243917800,4.633917724609375,-2.5128283500671387,0.8079524636268616,3.003342866897583
2024-12-04 21:49:06.253943800,4.64394384765625,-1.8451120853424072,0.95369690656662,2.9701743125915527
2024-12-04 21:49:06.263969500,4.653969482421875,-0.855604887008667,0.7730236053466797,2.550114393234253
2024-12-04 21:49:06.273995500,4.66399560546875,-0.2223488390445709,0.34337317943573,1.9044090509414675
2024-12-04 21:49:06.284022800,4.674022705078125,0.100674957036972,-0.4582696557044983,1.1740310192108154
2024-12-04 21:49:06.294048800,4.684048828125,0.1768426895141601,-1.3158509731292725,0.7079201340675354
2024-12-04 21:49:06.304074800,4.69407470703125,0.1875583082437515,-1.6206811666488647,0.6506800055503845
2024-12-04 21:49:06.314100700,4.704100830078125,0.2240076512098312,-1.5076550245285034,0.8248502016067505
2024-12-04 21:49:06.324126700,4.714126708984375,0.3051380217075348,-1.2489017248153689,0.8890740275382996
2024-12-04 21:49:06.334152700,4.724152587890625,0.379982978105545,-1.0802682638168335,0.671532154083252
2024-12-04 21:49:06.344178700,4.7341787109375,0.4903895854949951,-1.024031639099121,0.1985917538404464
2024-12-04 21:49:06.354204700,4.74420458984375,0.6110949516296387,-0.9772330522537231,-0.3942947685718536
2024-12-04 21:49:06.364230700,4.754230712890625,0.5491206645965576,-1.041728377342224,-0.9441958069801332
2024-12-04 21:49:06.374256600,4.764256591796875,0.3459236025810241,-0.8937279582023621,-1.3060858249664309
2024-12-04 21:49:06.384284000,4.774283935546875,0.0632157400250434,-0.5662629008293152,-1.4367611408233645
2024-12-04 21:49:06.394309600,4.7843095703125,-0.1174057051539421,-0.2664530277252197,-1.4405699968338013
2024-12-04 21:49:06.404335600,4.794335693359375,-0.0622631423175334,-0.0657868385314941,-1.4151253700256348
2024-12-04 21:49:06.414361600,4.804361572265625,0.1713789105415344,0.0020302936900407,-1.3841450214385986
2024-12-04 21:49:06.424387600,4.8143876953125,0.4744874536991119,-0.0137699227780103,-1.3284525871276855
2024-12-04 21:49:06.434413600,4.82441357421875,0.7811362743377686,-0.0517886765301227,-1.2469364404678345
2024-12-04 21:49:06.444439600,4.834439453125,1.0258893966674805,-0.0848587155342102,-1.1012157201766968
2024-12-04 21:49:06.454465500,4.844465576171875,1.1836960315704346,-0.1252980232238769,-0.905587911605835
2024-12-04 21:49:06.464491500,4.854491455078125,1.1783980131149292,-0.1257190108299255,-0.7350381016731262
2024-12-04 21:49:06.474517800,4.864517822265625,1.0687199831008911,-0.2292531281709671,-0.5133153200149536
2024-12-04 21:49:06.484543700,4.874543701171875,0.9440746903419496,-0.4396909475326538,-0.2199168354272842
2024-12-04 21:49:06.494569700,4.88456982421875,0.850409984588623,-0.6809639930725098,0.1367925554513931
2024-12-04 21:49:06.504596700,4.8945966796875,0.8217601776123047,-0.936219334602356,0.5159896016120911
2024-12-04 21:49:06.514622700,4.904622802734375,0.8405722379684448,-1.2193224430084229,0.9902359843254088
2024-12-04 21:49:06.524648700,4.914648681640625,0.8425714373588562,-1.55080246925354,1.5262995958328247
2024-12-04 21:49:06.534674700,4.9246748046875,0.8635126948356628,-2.0254697799682617,1.955544233322144
2024-12-04 21:49:06.544700700,4.93470068359375,0.8737606406211853,-2.415208339691162,2.238651752471924
2024-12-04 21:49:06.554726700,4.9447265625,0.781640350818634,-2.384692430496216,2.413237810134888
2024-12-04 21:49:06.564753000,4.9547529296875,0.6161442995071411,-2.058920860290528,2.4262590408325195
2024-12-04 21:49:06.574779000,4.96477880859375,0.4774197340011596,-1.6836774349212646,2.172427177429199
2024-12-04 21:49:06.584804900,4.974804931640625,0.3647068738937378,-1.3425145149230957,1.7001299858093262
2024-12-04 21:49:06.594830800,4.984830810546875,0.3085088431835174,-0.9894757866859436,1.0336569547653198
2024-12-04 21:49:06.604857600,4.994857666015625,0.3130920529365539,-0.6424769163131714,0.2850384712219238
2024-12-04 21:49:06.614883600,5.004883544921875,0.3473000824451446,-0.2697339355945587,-0.425801545381546
2024-12-04 21:49:06.624909600,5.01490966796875,0.3701743483543396,0.0800284743309021,-0.965445637702942
2024-12-04 21:49:06.634935600,5.024935546875,0.3754189312458038,0.3358094096183777,-1.2677959203720093
2024-12-04 21:49:06.644961800,5.0349619140625,0.3636660575866699,0.4740346372127533,-1.366120219230652
2024-12-04 21:49:06.654987800,5.04498779296875,0.3368879854679107,0.4975471794605255,-1.3195191621780396
2024-12-04 21:49:06.665013800,5.055013671875,0.2900190949440002,0.4420786798000335,-1.1782243251800537
2024-12-04 21:49:06.675039700,5.065039794921875,0.2360043376684188,0.3381655812263489,-0.9755135774612428
2024-12-04 21:49:06.685065700,5.075065673828125,0.190028965473175,0.2154428213834762,-0.7252607345581055
2024-12-04 21:49:06.695091700,5.085091796875,0.1452724188566208,0.0945938974618911,-0.4419544637203216
2024-12-04 21:49:06.705117700,5.09511767578125,0.096367560327053,-0.0113441124558448,-0.1505248099565506
2024-12-04 21:49:06.715144700,5.105144775390625,0.0399767272174358,-0.109494648873806,0.1182328760623931
2024-12-04 21:49:06.725170700,5.115170654296875,-0.0172264277935028,-0.185048833489418,0.3407904207706451
2024-12-04 21:49:06.735197000,5.125197021484375,-0.0636762157082557,-0.226238876581192,0.4883031845092773
2024-12-04 21:49:06.745223000,5.135222900390625,-0.0762437283992767,-0.2339381724596023,0.5455706715583801
2024-12-04 21:49:06.755249000,5.145248779296875,-0.0747523605823516,-0.2148704826831817,0.5176820755004883
2024-12-04 21:49:06.765275000,5.15527490234375,-0.0671503096818924,-0.1625044196844101,0.4212584793567657
2024-12-04 21:49:06.775300900,5.16530078125,-0.0589357875287532,-0.0860863476991653,0.2691011726856231
2024-12-04 21:49:06.785326600,5.17532666015625,-0.0498734265565872,-0.0080116186290979,0.0970563739538192
2024-12-04 21:49:06.795352600,5.1853525390625,-0.0300845447927713,0.0542174018919467,-0.0554287731647491
2024-12-04 21:49:06.805378600,5.195378662109375,-0.0108484234660863,0.0888592526316642,-0.1475851535797119
2024-12-04 21:49:06.815404500,5.205404541015625,0.0163488425314426,0.1045210361480712,-0.186397522687912
2024-12-04 21:49:06.825431800,5.215431884765625,0.0290005654096603,0.1067182272672653,-0.1816321760416031
2024-12-04 21:49:06.835457800,5.225457763671875,0.0328970365226268,0.0759485960006713,-0.1475535780191421
2024-12-04 21:49:06.845483800,5.23548388671875,0.0284839607775211,0.0253541190177202,-0.0925225391983985
2024-12-04 21:49:06.855509800,5.245509765625,0.0158989280462265,-0.0256733801215887,-0.0216646138578653
2024-12-04 21:49:06.865535700,5.25553564453125,0.011825568974018,-0.0651200041174888,0.0468064621090889
2024-12-04 21:49:06.875562000,5.26556201171875,0.0040054623968899,-0.0942467302083969,0.1109865084290504
2024-12-04 21:49:06.885588000,5.275587890625,-0.0081772748380899,-0.1200246661901474,0.1605477184057235
2024-12-04 21:49:06.895614000,5.285614013671875,-0.0115379188209772,-0.1448301523923874,0.1915333271026611
2024-12-04 21:49:06.905640000,5.295639892578125,-0.0039675091393291,-0.1666198968887329,0.2077681571245193
2024-12-04 21:49:06.915666000,5.305666015625,0.0213170740753412,-0.1836060732603073,0.2150542885065078
2024-12-04 21:49:06.925692000,5.31569189453125,0.0550829209387302,-0.1835804879665374,0.2201364785432815
2024-12-04 21:49:06.935718700,5.32571875,0.0827800631523132,-0.1684518605470657,0.2207380980253219
2024-12-04 21:49:06.945744600,5.33574462890625,0.0992202386260032,-0.1497227400541305,0.2146923840045929
2024-12-04 21:49:06.955770600,5.3457705078125,0.1087769940495491,-0.1255034208297729,0.1998476535081863
2024-12-04 21:49:06.965796900,5.355796875,0.1182245537638664,-0.0851252675056457,0.1812281310558319
2024-12-04 21:49:06.975822800,5.36582275390625,0.1273306906223297,-0.023648589849472,0.1570021510124206
2024-12-04 21:49:06.985848800,5.375848876953125,0.1391184329986572,0.034292783588171,0.1329143792390823
2024-12-04 21:49:06.995874800,5.385874755859375,0.1496373862028122,0.0685732588171958,0.1061192601919174
2024-12-04 21:49:07.005900800,5.39590087890625,0.1572397053241729,0.0778350308537483,0.0846189931035041
2024-12-04 21:49:07.015926800,5.4059267578125,0.1622075587511062,0.0664449632167816,0.0750686302781105
2024-12-04 21:49:07.025952800,5.415952880859375,0.1690164804458618,0.0637196451425552,0.0795486345887184
2024-12-04 21:49:07.035978800,5.425978759765625,0.1846444308757782,0.0706867352128028,0.0969462692737579
2024-12-04 21:49:07.046005800,5.436005859375,0.210469365119934,0.0934632644057273,0.1228587925434112
2024-12-04 21:49:07.056032000,5.446031982421875,0.2448065727949142,0.1341430395841598,0.145457312464714
2024-12-04 21:49:07.066058000,5.45605810546875,0.2767350673675537,0.1589262932538986,0.1572015434503555
2024-12-04 21:49:07.076084000,5.466083984375,0.2980802953243255,0.1747710406780243,0.163386195898056
2024-12-04 21:49:07.086110000,5.47610986328125,0.3098376393318176,0.1902113258838653,0.1689133793115615
2024-12-04 21:49:07.096136000,5.486135986328125,0.3129711151123047,0.2093674540519714,0.1662068217992782
2024-12-04 21:49:07.106162000,5.496161865234375,0.3067102134227752,0.1811495870351791,0.1706855595111847
2024-12-04 21:49:07.116188000,5.50618798828125,0.3057368099689483,0.1026792824268341,0.1883966475725174
2024-12-04 21:49:07.126214000,5.5162138671875,0.3317897319793701,0.013362449593842,0.2237663567066192
2024-12-04 21:49:07.136239900,5.526239990234375,0.3809660673141479,-0.0461496114730834,0.2547586262226105
2024-12-04 21:49:07.146265900,5.536265869140625,0.4447721540927887,-0.0490334369242191,0.2634657025337219
2024-12-04 21:49:07.156292900,5.54629296875,0.5164199471473694,-0.0408732444047927,0.2421399056911468
2024-12-04 21:49:07.166318800,5.55631884765625,0.5957951545715332,-0.0324496030807495,0.2065436393022537
2024-12-04 21:49:07.176344800,5.5663447265625,0.6740031838417053,-0.0106255318969488,0.171347290277481
2024-12-04 21:49:07.186370800,5.576370849609375,0.7418816685676575,0.0433543249964714,0.1317239105701446
2024-12-04 21:49:07.196396800,5.586396728515625,0.7929174304008484,0.0833185166120529,0.0994621068239212
2024-12-04 21:49:07.206422800,5.5964228515625,0.8111333847045898,0.0585883557796478,0.0868550762534141
2024-12-04 21:49:07.216448800,5.60644873046875,0.7992724776268005,-0.0166368912905454,0.0807849317789077
2024-12-04 21:49:07.226474800,5.616474853515625,0.7675086259841919,-0.0946131646633148,0.0849484279751777
2024-12-04 21:49:07.236500700,5.626500732421875,0.7396008372306824,-0.1486955881118774,0.1013034284114837
2024-12-04 21:49:07.246527000,5.63652685546875,0.7254886627197266,-0.1798689216375351,0.1181581318378448
2024-12-04 21:49:07.256553000,5.646552978515625,0.7139422297477722,-0.2107368111610412,0.1238746047019958
2024-12-04 21:49:07.266580000,5.656580078125,0.7072191834449768,-0.2500551342964172,0.1091842278838157
2024-12-04 21:49:07.276606000,5.66660595703125,0.7165343761444092,-0.2743777930736542,0.064764030277729
2024-12-04 21:49:07.286632000,5.6766318359375,0.7371213436126709,-0.2704069018363952,-0.0079974699765443
2024-12-04 21:49:07.296658000,5.686657958984375,0.7651864886283875,-0.23782579600811,-0.105655051767826
2024-12-04 21:49:07.306684000,5.696683837890625,0.7870030999183655,-0.2056839913129806,-0.2002274990081787
2024-12-04 21:49:07.316709600,5.706709716796875,0.7915427088737488,-0.2193569242954254,-0.2546308040618896
2024-12-04 21:49:07.326735600,5.716735595703125,0.7801443338394165,-0.2722948491573334,-0.2560665607452392
2024-12-04 21:49:07.336761900,5.726761962890625,0.7706893086433411,-0.3396749496459961,-0.2183511406183242
2024-12-04 21:49:07.346787800,5.736787841796875,0.7748228311538696,-0.3816485702991485,-0.1888500303030014
2024-12-04 21:49:07.356813800,5.746813720703125,0.7912822365760803,-0.3593286275863647,-0.1917946934700012
2024-12-04 21:49:07.366839800,5.75683984375,0.7998837232589722,-0.3063860535621643,-0.2267770916223526
2024-12-04 21:49:07.376866800,5.76686669921875,0.7928428649902344,-0.3087141811847687,-0.2586223483085632
2024-12-04 21:49:07.386892800,5.776892822265625,0.7627277970314026,-0.3790298104286194,-0.2778190076351166
2024-12-04 21:49:07.396918800,5.786918701171875,0.7436848878860474,-0.4542497396469116,-0.282499223947525
2024-12-04 21:49:07.406944800,5.79694482421875,0.7430440187454224,-0.4706514477729797,-0.2856023907661438
2024-12-04 21:49:07.416970800,5.806970703125,0.7644824981689453,-0.4400522410869598,-0.2992708086967468
2024-12-04 21:49:07.426997000,5.8169970703125,0.8139901161193848,-0.4289443492889404,-0.2925946712493896
2024-12-04 21:49:07.437023000,5.82702294921875,0.8612878918647766,-0.4641617238521576,-0.2817018032073974
2024-12-04 21:49:07.447049000,5.837049072265625,0.9101681113243104,-0.5223441123962402,-0.269357681274414
2024-12-04 21:49:07.457075000,5.847074951171875,0.9764426946640016,-0.5527917742729187,-0.2734847962856293
2024-12-04 21:49:07.467101000,5.857100830078125,1.0349955558776855,-0.5308545231819153,-0.2948136925697326
2024-12-04 21:49:07.477127000,5.867126953125,1.0613393783569336,-0.489153116941452,-0.3174958229064941
2024-12-04 21:49:07.487153700,5.877153564453125,1.0582609176635742,-0.4711273610591888,-0.3418939709663391
2024-12-04 21:49:07.497179600,5.8871796875,1.0607850551605225,-0.4692679345607757,-0.3941901922225952
2024-12-04 21:49:07.507205600,5.89720556640625,1.0718169212341309,-0.4721893668174743,-0.4817350208759308
2024-12-04 21:49:07.517231900,5.90723193359375,1.0992521047592163,-0.4597846269607544,-0.584121584892273
2024-12-04 21:49:07.527257900,5.9172578125,1.1110808849334717,-0.414941132068634,-0.6637644171714783
2024-12-04 21:49:07.537283800,5.927283935546875,1.0738879442214966,-0.3370971977710724,-0.7404722571372986
2024-12-04 21:49:07.547309800,5.937309814453125,0.9976633191108704,-0.296432614326477,-0.8034366965293884
2024-12-04 21:49:07.557335800,5.947335693359375,0.9434655904769896,-0.2389570623636245,-0.8605988025665283
2024-12-04 21:49:07.567361800,5.95736181640625,0.9487705230712892,-0.1444895267486572,-0.9082244634628296
2024-12-04 21:49:07.577387800,5.9673876953125,0.938621997833252,-0.0726347714662551,-0.9860137701034546
2024-12-04 21:49:07.587413800,5.977413818359375,0.8959025144577026,-0.0644411966204643,-1.0651596784591677
2024-12-04 21:49:07.597439700,5.987439697265625,0.81825190782547,-0.0495786294341087,-1.1213922500610352
2024-12-04 21:49:07.607467000,5.997467041015625,0.7241388559341431,0.0027265958487987,-1.1489070653915403
2024-12-04 21:49:07.617493000,6.007492919921875,0.6298091411590576,0.0324650481343269,-1.1511549949645996
2024-12-04 21:49:07.627519000,6.01751904296875,0.5360586643218994,0.0542143806815147,-1.1409380435943604
2024-12-04 21:49:07.637545000,6.027544921875,0.4662247598171234,0.0343589149415493,-1.1281559467315674
2024-12-04 21:49:07.647571000,6.037571044921875,0.4001699686050415,-0.0249903947114944,-1.1310060024261477
2024-12-04 21:49:07.657597000,6.047596923828125,0.3531326651573181,-0.01859587803483,-1.1239097118377686
2024-12-04 21:49:07.667623000,6.057622802734375,0.324643075466156,0.0276031848043203,-1.0398540496826172
2024-12-04 21:49:07.677649000,6.06764892578125,0.3041095733642578,0.0612141378223896,-0.8737908601760864
2024-12-04 21:49:07.687675000,6.0776748046875,0.2851406633853912,0.0843165293335914,-0.6387946009635925
2024-12-04 21:49:07.697700900,6.087700927734375,0.2792028784751892,0.1195293739438057,-0.3845345973968506
2024-12-04 21:49:07.707726800,6.097726806640625,0.2544891238212585,0.1538687944412231,-0.1421258151531219
2024-12-04 21:49:07.717753900,6.10775390625,0.1934811770915985,0.1726523339748382,0.078407883644104
2024-12-04 21:49:07.727779800,6.11777978515625,0.1391459703445434,0.186140090227127,0.2452775985002517
2024-12-04 21:49:07.737805800,6.127805908203125,0.0960147529840469,0.1954576820135116,0.3507243990898132
2024-12-04 21:49:07.747831800,6.137831787109375,0.032550286501646,0.2375484704971313,0.4252511858940124
2024-12-04 21:49:07.757857800,6.14785791015625,-0.0468936711549758,0.3079800307750702,0.473440021276474
2024-12-04 21:49:07.767883800,6.1578837890625,-0.1247302517294883,0.3435274958610534,0.5104625225067139
2024-12-04 21:49:07.777909800,6.16790966796875,-0.182843878865242,0.3455498814582824,0.5754953622817993
2024-12-04 21:49:07.787935700,6.177935791015625,-0.2118483185768127,0.379654973745346,0.6628549695014954
2024-12-04 21:49:07.797962000,6.1879619140625,-0.205270305275917,0.4432193040847778,0.7782095074653625
2024-12-04 21:49:07.807988000,6.197988037109375,-0.2184360772371292,0.4716270565986633,0.9001507759094238
2024-12-04 21:49:07.818014000,6.208013916015625,-0.2441310584545135,0.4987068772315979,1.0221909284591677
2024-12-04 21:49:07.828041000,6.218041015625,-0.292779266834259,0.5018154978752136,1.148747801780701
2024-12-04 21:49:07.838067000,6.22806689453125,-0.3660436272621155,0.4516657292842865,1.2720545530319214
2024-12-04 21:49:07.848092700,6.2380927734375,-0.451967179775238,0.3682702183723449,1.3567674160003662
2024-12-04 21:49:07.858118700,6.24811865234375,-0.510621964931488,0.2977459728717804,1.4001301527023315
2024-12-04 21:49:07.868144600,6.25814453125,-0.553162693977356,0.2549395859241485,1.3995574712753296
2024-12-04 21:49:07.878170400,6.26817041015625,-0.5855630040168762,0.2508859932422638,1.3608156442642212
2024-12-04 21:49:07.888196400,6.2781962890625,-0.6226459741592407,0.296953022480011,1.312126398086548
2024-12-04 21:49:07.898222300,6.288222412109375,-0.6740830540657043,0.3435865640640259,1.267759919166565
2024-12-04 21:49:07.908248300,6.298248291015625,-0.7223836779594421,0.3982890248298645,1.226142644882202
2024-12-04 21:49:07.918274300,6.3082744140625,-0.7765212059020996,0.4436098933219909,1.1826101541519165
2024-12-04 21:49:07.928300300,6.31830029296875,-0.8291257619857788,0.4646763503551483,1.1478536128997805
2024-12-04 21:49:07.938327300,6.328327392578125,-0.8777244091033936,0.4887827634811401,1.125006914138794
2024-12-04 21:49:07.948353500,6.338353515625,-0.9138842821121216,0.5264707207679749,1.1170891523361206
2024-12-04 21:49:07.958379500,6.348379638671875,-0.9466326236724854,0.5321914553642273,1.124308466911316
2024-12-04 21:49:07.968405500,6.358405517578125,-1.0065594911575315,0.477749228477478,1.1281347274780271
2024-12-04 21:49:07.978431500,6.368431396484375,-1.107417345046997,0.3670746684074402,1.1258430480957031
2024-12-04 21:49:07.988457500,6.37845751953125,-1.2043825387954712,0.2520405650138855,1.1115022897720337
2024-12-04 21:49:07.998483500,6.3884833984375,-1.2955622673034668,0.1271942555904388,1.085895299911499
2024-12-04 21:49:08.008509400,6.398509521484375,-1.3896483182907104,0.0020270862150937,1.0490391254425049
2024-12-04 21:49:08.018535400,6.408535400390625,-1.4818767309188845,-0.0836353525519371,0.9968648552894592
2024-12-04 21:49:08.028561400,6.4185615234375,-1.5704758167266846,-0.117276482284069,0.9186710715293884
2024-12-04 21:49:08.038587400,6.42858740234375,-1.6609312295913696,-0.1414619833230972,0.8014510273933411
2024-12-04 21:49:08.048613400,6.43861328125,-1.7378464937210083,-0.1752827167510986,0.6690534949302673
2024-12-04 21:49:08.058640400,6.448640380859375,-1.8017791509628296,-0.2238252311944961,0.5224435329437256
2024-12-04 21:49:08.068666400,6.458666259765625,-1.866261005401612,-0.2756950855255127,0.3687093257904053
2024-12-04 21:49:08.078692400,6.4686923828125,-1.9192304611206048,-0.298449158668518,0.211278423666954
2024-12-04 21:49:08.088718300,6.47871826171875,-1.952661633491516,-0.2703945338726043,0.0454358011484146
2024-12-04 21:49:08.098744300,6.488744384765625,-1.937782526016236,-0.2221084833145141,-0.1066815629601478
2024-12-04 21:49:08.108770300,6.498770263671875,-1.876599669456482,-0.1952768266201019,-0.2297641038894653
2024-12-04 21:49:08.118796300,6.50879638671875,-1.7884753942489624,-0.150924801826477,-0.3067129552364349
2024-12-04 21:49:08.128822300,6.518822265625,-1.680647373199463,-0.079904057085514,-0.3454000949859619
2024-12-04 21:49:08.138848300,6.52884814453125,-1.552640438079834,-0.0019645162392407,-0.3669557273387909
2024-12-04 21:49:08.148874500,6.53887451171875,-1.4299609661102295,0.0669211968779563,-0.3931427001953125
2024-12-04 21:49:08.158900500,6.548900390625,-1.2955634593963623,0.1132290363311767,-0.4145611822605133
2024-12-04 21:49:08.168927500,6.558927490234375,-1.1552232503890991,0.129379004240036,-0.4297289848327636
2024-12-04 21:49:08.178953500,6.568953369140625,-1.0129680633544922,0.1233967468142509,-0.4325452744960785
2024-12-04 21:49:08.188979500,6.5789794921875,-0.8662380576133728,0.094417817890644,-0.4288580119609833
2024-12-04 21:49:08.199005400,6.58900537109375,-0.7318637371063232,0.0470351241528987,-0.4241260886192322
2024-12-04 21:49:08.209031400,6.599031494140625,-0.6014314293861389,0.0074994312599301,-0.422755628824234
2024-12-04 21:49:08.219057400,6.609057373046875,-0.4828502535820007,-0.0269162040203809,-0.4301109910011291
2024-12-04 21:49:08.229083600,6.619083740234375,-0.3613281846046448,-0.0428299531340599,-0.444175660610199
2024-12-04 21:49:08.239109600,6.629109619140625,-0.2281546890735626,-0.0339523069560527,-0.4489285945892334
2024-12-04 21:49:08.249135600,6.639135498046875,-0.0854216739535331,-0.0281864758580923,-0.4456792175769806
2024-12-04 21:49:08.259161600,6.64916162109375,0.0566531755030155,-0.0417704619467258,-0.4385353028774261
2024-12-04 21:49:08.269187300,6.659187255859375,0.1733907610177993,-0.0642478764057159,-0.428583562374115
2024-12-04 21:49:08.279214300,6.66921435546875,0.2614417672157287,-0.0863814055919647,-0.4206225574016571
2024-12-04 21:49:08.289240300,6.679240234375,0.333236426115036,-0.1022863984107971,-0.4059220254421234
2024-12-04 21:49:08.299266300,6.689266357421875,0.4018383920192718,-0.1329684108495712,-0.3689043521881103
2024-12-04 21:49:08.309292300,6.699292236328125,0.4638305902481079,-0.1698402911424636,-0.3064810335636139
2024-12-04 21:49:08.319318500,6.709318603515625,0.5312572717666626,-0.1960721611976623,-0.228428840637207
2024-12-04 21:49:08.329344500,6.719344482421875,0.6083171963691711,-0.221695065498352,-0.1402445286512375
2024-12-04 21:49:08.339370500,6.72937060546875,0.6936454176902771,-0.2470792531967163,-0.0491092912852764
2024-12-04 21:49:08.349396500,6.739396484375,0.7807783484458923,-0.2457897961139679,0.0429143905639648
2024-12-04 21:49:08.359422500,6.74942236328125,0.8662946224212646,-0.2455165535211563,0.1307081580162048
2024-12-04 21:49:08.369448400,6.759448486328125,0.94574236869812,-0.3075411021709442,0.2204636335372924
2024-12-04 21:49:08.379474400,6.769474365234375,1.0137581825256348,-0.4116264879703522,0.3076826930046081
2024-12-04 21:49:08.389501400,6.77950146484375,1.0679603815078735,-0.4692553579807281,0.3615553975105285
2024-12-04 21:49:08.399527400,6.78952734375,1.1067615747451782,-0.4621926546096802,0.3403699398040771
2024-12-04 21:49:08.409553400,6.799553466796875,1.1239371299743652,-0.4496544897556305,0.246021881699562
2024-12-04 21:49:08.419579400,6.809579345703125,1.1482539176940918,-0.4648510217666626,0.1210815384984016
2024-12-04 21:49:08.429605400,6.81960546875,1.2047430276870728,-0.5050025582313538,0.0142055489122867
2024-12-04 21:49:08.439631400,6.82963134765625,1.303700566291809,-0.5144267082214355,-0.0532062463462352
2024-12-04 21:49:08.449657300,6.8396572265625,1.4202419519424438,-0.4843179583549499,-0.0906194299459457
2024-12-04 21:49:08.459683300,6.849683349609375,1.5218298435211182,-0.4576448202133178,-0.1095718219876289
2024-12-04 21:49:08.469709300,6.859709228515625,1.6001291275024414,-0.426557183265686,-0.1207091584801673
2024-12-04 21:49:08.479735300,6.8697353515625,1.6477653980255127,-0.3733634948730469,-0.1427204608917236
2024-12-04 21:49:08.489761300,6.87976123046875,1.658722162246704,-0.2972196936607361,-0.1860661506652832
2024-12-04 21:49:08.499787300,6.889787353515625,1.6435788869857788,-0.2482998222112655,-0.2447664886713028
2024-12-04 21:49:08.509814500,6.899814453125,1.6069902181625366,-0.2558915615081787,-0.2960028946399688
2024-12-04 21:49:08.519840500,6.909840576171875,1.5744736194610596,-0.3038228750228882,-0.3358270227909088
2024-12-04 21:49:08.529866500,6.919866455078125,1.5653501749038696,-0.312500387430191,-0.3650618195533752
2024-12-04 21:49:08.539892500,6.929892578125,1.576519012451172,-0.3034885227680206,-0.3866209089756012
2024-12-04 21:49:08.549918500,6.93991845703125,1.5960849523544312,-0.2587818205356598,-0.4097506403923034
2024-12-04 21:49:08.559944400,6.9499443359375,1.61028790473938,-0.2068009078502655,-0.4350029826164245
2024-12-04 21:49:08.569970400,6.959970458984375,1.6148934364318848,-0.2013572305440902,-0.4416771829128265
2024-12-04 21:49:08.579996400,6.969996337890625,1.5892280340194702,-0.2101669758558273,-0.4489715993404388
2024-12-04 21:49:08.590022400,6.9800224609375,1.5710419416427612,-0.1850487440824508,-0.4871340990066528
2024-12-04 21:49:08.600048600,6.990048583984375,1.56038498878479,-0.13559490442276,-0.5342491269111633
2024-12-04 21:49:08.610074600,7.00007470703125,1.4991023540496826,-0.1121421381831169,-0.607479989528656
2024-12-04 21:49:08.620101400,7.010101318359375,1.4048157930374146,-0.1201515942811966,-0.7000152468681335
2024-12-04 21:49:08.630127400,7.02012744140625,1.3324692249298096,-0.1235621497035026,-0.7484576106071472
2024-12-04 21:49:08.640153300,7.0301533203125,1.264729619026184,-0.1006432473659515,-0.7838089466094971
2024-12-04 21:49:08.650179300,7.040179443359375,1.170013427734375,-0.0448332987725734,-0.9044398069381714
2024-12-04 21:49:08.660205300,7.050205322265625,1.0594507455825806,0.0502255707979202,-1.0744072198867798
2024-12-04 21:49:08.670231300,7.060231201171875,0.92623108625412,0.148901879787445,-1.2216156721115112
2024-12-04 21:49:08.680257300,7.07025732421875,0.7342478036880493,0.2603344023227691,-1.3791579008102417
2024-12-04 21:49:08.690283500,7.080283447265625,0.5215065479278564,0.3696592152118683,-1.493895411491394
2024-12-04 21:49:08.700309500,7.0903095703125,0.3232893347740173,0.4684542417526245,-1.5316579341888428
2024-12-04 21:49:08.710335500,7.10033544921875,0.1637575775384903,0.4904904961585998,-1.5027974843978882
2024-12-04 21:49:08.720361500,7.110361572265625,0.0198230408132076,0.4253828525543213,-1.4259412288665771
2024-12-04 21:49:08.730388500,7.120388427734375,-0.1018563136458396,0.3270939588546753,-1.3117280006408691
2024-12-04 21:49:08.740414500,7.13041455078125,-0.1956847906112671,0.2530586123466491,-1.1623854637145996
2024-12-04 21:49:08.750440400,7.1404404296875,-0.2498332113027572,0.2219519317150116,-0.9651644825935364
2024-12-04 21:49:08.760466400,7.150466552734375,-0.2908909022808075,0.2136628478765487,-0.7156803607940674
2024-12-04 21:49:08.770492400,7.160492431640625,-0.3340147137641907,0.1965450495481491,-0.4272337853908539
2024-12-04 21:49:08.780518700,7.1705185546875,-0.3899115324020386,0.1556397080421447,-0.127102181315422
2024-12-04 21:49:08.790544400,7.18054443359375,-0.4539803862571716,0.0942203626036644,0.1687506735324859
2024-12-04 21:49:08.800570400,7.1905703125,-0.5280562043190002,0.0448392294347286,0.447034478187561
2024-12-04 21:49:08.810596400,7.200596435546875,-0.5947892665863037,0.0207694415003061,0.6925390958786011
2024-12-04 21:49:08.820622300,7.210622314453125,-0.6558206677436829,0.0017954841023311,0.9105481505393982
2024-12-04 21:49:08.830648300,7.2206484375,-0.6940279006958008,0.0060094497166574,1.1039286851882937
2024-12-04 21:49:08.840675300,7.23067529296875,-0.7102987766265869,0.0066155851818621,1.2883813381195068
2024-12-04 21:49:08.850701300,7.240701416015625,-0.7168681025505066,-0.0318015068769454,1.4586057662963867
2024-12-04 21:49:08.860727300,7.250727294921875,-0.7312241196632385,-0.0821565613150596,1.5951652526855469
2024-12-04 21:49:08.870753300,7.260753173828125,-0.7536615133285522,-0.0934565588831901,1.682806134223938
2024-12-04 21:49:08.880779300,7.270779296875,-0.8026573061943054,-0.0820712745189666,1.7379945516586304
2024-12-04 21:49:08.890805200,7.28080517578125,-0.8704949617385864,-0.0429583936929702,1.7518051862716677
2024-12-04 21:49:08.900831200,7.290831298828125,-0.9716007709503174,-0.0264257565140724,1.752292513847351
2024-12-04 21:49:08.910857500,7.300857421875,-1.0831823348999023,-0.0108556188642978,1.7350014448165894
2024-12-04 21:49:08.920883500,7.310883544921875,-1.209061622619629,0.0080078179016709,1.7044168710708618
2024-12-04 21:49:08.930909400,7.320909423828125,-1.3458435535430908,0.0318448469042778,1.6511526107788086
2024-12-04 21:49:08.940935400,7.330935302734375,-1.4844017028808594,0.0470664091408252,1.5796093940734863
2024-12-04 21:49:08.950961400,7.34096142578125,-1.6171648502349854,0.014659778214991,1.4947304725646973
2024-12-04 21:49:08.960988200,7.35098828125,-1.7422378063201904,-0.0734988451004028,1.3882945775985718
2024-12-04 21:49:08.971014100,7.36101416015625,-1.8947559595108032,-0.1541890501976013,1.2315295934677124
2024-12-04 21:49:08.981040000,7.3710400390625,-2.059210062026977,-0.1937476545572281,1.061820387840271
2024-12-04 21:49:08.991066400,7.38106640625,-2.187494993209839,-0.1670532822608947,0.8910905718803406
2024-12-04 21:49:09.001092400,7.39109228515625,-2.2552266120910645,-0.0572490319609642,0.716667115688324
2024-12-04 21:49:09.011118300,7.401118408203125,-2.264891624450684,0.0821657180786132,0.5425858497619629
2024-12-04 21:49:09.021144300,7.411144287109375,-2.227491855621338,0.1805308908224105,0.3794973790645599
2024-12-04 21:49:09.031170300,7.42117041015625,-2.164608955383301,0.2173165380954742,0.2266978174448013
2024-12-04 21:49:09.041196300,7.4311962890625,-2.0921108722686768,0.2484076023101806,0.0774164572358131
2024-12-04 21:49:09.051222300,7.44122216796875,-2.010371446609497,0.2992030382156372,-0.0644147619605064
2024-12-04 21:49:09.061248300,7.451248291015625,-1.921281099319458,0.352523535490036,-0.1824031770229339
2024-12-04 21:49:09.071275300,7.461275146484375,-1.8200619220733645,0.4534067213535309,-0.2665203511714935
2024-12-04 21:49:09.081301500,7.471301513671875,-1.6972529888153076,0.5986054539680481,-0.3095682263374328
2024-12-04 21:49:09.091327500,7.481327392578125,-1.5455405712127686,0.743138313293457,-0.3125227093696594
2024-12-04 21:49:09.101353500,7.491353515625,-1.3508692979812622,0.8069330453872681,-0.2875028550624847
2024-12-04 21:49:09.111379500,7.50137939453125,-1.112834930419922,0.7444514036178589,-0.2357402741909027
2024-12-04 21:49:09.121405400,7.511405517578125,-0.8608136177062988,0.5772905945777893,-0.1639454364776611
2024-12-04 21:49:09.131431400,7.521431396484375,-0.6455861330032349,0.3293515741825104,-0.0734286606311798
2024-12-04 21:49:09.141457400,7.53145751953125,-0.4942816197872162,0.0539825931191444,0.0254971198737621
2024-12-04 21:49:09.151483400,7.5414833984375,-0.3833277225494385,-0.1449794471263885,0.1215739175677299
2024-12-04 21:49:09.161509400,7.55150927734375,-0.2726422250270843,-0.205944538116455,0.2031792998313903
2024-12-04 21:49:09.171535400,7.561535400390625,-0.1632831245660781,-0.161121055483818,0.2465298473834991
2024-12-04 21:49:09.181562400,7.571562255859375,-0.019625561311841,-0.1181485503911972,0.2641112506389618
2024-12-04 21:49:09.191588400,7.58158837890625,0.1151133552193641,-0.0953175798058509,0.2498954683542251
2024-12-04 21:49:09.201614300,7.5916142578125,0.2475462257862091,-0.0977109596133232,0.2151518762111663
2024-12-04 21:49:09.211640300,7.601640380859375,0.3816342353820801,-0.0817339271306991,0.1520699560642242
2024-12-04 21:49:09.221666300,7.611666259765625,0.5098470449447632,-0.0412493497133255,0.0562211982905864
2024-12-04 21:49:09.231692300,7.6216923828125,0.6242191195487976,0.0040375180542469,-0.0809508934617042
2024-12-04 21:49:09.241718300,7.63171826171875,0.725801408290863,0.0422597378492355,-0.2429776042699813
2024-12-04 21:49:09.251744300,7.641744140625,0.8206934928894043,0.0622202344238758,-0.3985597789287567
2024-12-04 21:49:09.261770200,7.651770263671875,0.9063820838928224,0.0765871927142143,-0.5132805109024048
2024-12-04 21:49:09.271796200,7.661796142578125,0.9814146757125854,0.0789452716708183,-0.5693932175636292
2024-12-04 21:49:09.281822500,7.671822509765625,1.0451972484588623,0.0589702315628528,-0.5657217502593994
2024-12-04 21:49:09.291849500,7.681849365234375,1.1032346487045288,0.0149746369570493,-0.5066807270050049
2024-12-04 21:49:09.301875500,7.69187548828125,1.1559189558029177,-0.0562390908598899,-0.4034345149993896
2024-12-04 21:49:09.311901400,7.7019013671875,1.2055596113204956,-0.1378432065248489,-0.2733934819698334
2024-12-04 21:49:09.321927400,7.711927490234375,1.247743010520935,-0.2198752164840698,-0.1443899571895599
2024-12-04 21:49:09.331953400,7.721953369140625,1.2796494960784912,-0.3165244460105896,-0.0236624125391244
2024-12-04 21:49:09.341979400,7.7319794921875,1.3247759342193604,-0.40264892578125,0.0625792667269706
2024-12-04 21:49:09.352005000,7.742005126953125,1.3897087574005127,-0.4606613218784332,0.108810931444168
2024-12-04 21:49:09.362031000,7.752031005859375,1.484431505203247,-0.4812118709087372,0.108196273446083
2024-12-04 21:49:09.372057300,7.762057373046875,1.5887668132781982,-0.4771366417407989,0.0714639723300933
2024-12-04 21:49:09.382083300,7.772083251953125,1.691440224647522,-0.4499638676643371,0.0250490736216306
2024-12-04 21:49:09.392109300,7.782109375,1.787583589553833,-0.4128884971141815,-0.0323685593903064
2024-12-04 21:49:09.402136300,7.79213623046875,1.873235821723938,-0.3776918947696686,-0.1046110615134239
2024-12-04 21:49:09.412162300,7.802162353515625,1.951893329620361,-0.3514828383922577,-0.1712685078382492
2024-12-04 21:49:09.422188300,7.812188232421875,1.9965388774871824,-0.3473184406757355,-0.2270374894142151
2024-12-04 21:49:09.432214300,7.82221435546875,1.994831800460816,-0.3837653398513794,-0.2739615440368652
2024-12-04 21:49:09.442240300,7.832240234375,1.9375946521759035,-0.4118606150150299,-0.287464290857315
2024-12-04 21:49:09.452266500,7.8422666015625,1.8938496112823489,-0.4028964638710022,-0.2788580954074859
2024-12-04 21:49:09.462292500,7.85229248046875,1.8626999855041504,-0.3414637148380279,-0.324847400188446
2024-12-04 21:49:09.472318500,7.862318359375,1.80458414554596,-0.2182557731866836,-0.4893998801708221
2024-12-04 21:49:09.482344400,7.872344482421875,1.718090295791626,0.0141375204548239,-0.7834996581077576
2024-12-04 21:49:09.492370400,7.882370361328125,1.604185938835144,0.3279340863227844,-1.1428589820861816
2024-12-04 21:49:09.502396400,7.892396484375,1.4714374542236328,0.5417744517326355,-1.4464832544326782
2024-12-04 21:49:09.512423200,7.902423095703125,1.362390160560608,0.5342763662338257,-1.558974027633667
2024-12-04 21:49:09.522449200,7.91244921875,1.2505285739898682,0.3710166215896606,-1.495688557624817
2024-12-04 21:49:09.532475100,7.92247509765625,1.1684515476226809,0.2069113105535507,-1.321357488632202
2024-12-04 21:49:09.542501400,7.93250146484375,1.1693682670593262,0.1171265617012977,-1.1224777698516846
2024-12-04 21:49:09.552527400,7.94252734375,1.17880380153656,0.1136694028973579,-0.9875337481498718
2024-12-04 21:49:09.562553300,7.95255322265625,1.135335922241211,0.1164737120270729,-0.9264155030250548
2024-12-04 21:49:09.572579300,7.962579345703125,0.998816967010498,0.1085783094167709,-0.8869077563285828
2024-12-04 21:49:09.582605300,7.972605224609375,0.778252363204956,0.1417554467916488,-0.8508296012878418
2024-12-04 21:49:09.592631300,7.98263134765625,0.5745142698287964,0.2131433486938476,-0.7623059153556824
2024-12-04 21:49:09.602657300,7.9926572265625,0.434522807598114,0.3128659725189209,-0.6456636786460876
2024-12-04 21:49:09.612683300,8.002683349609375,0.3383541703224182,0.3896844983100891,-0.5412959456443787
2024-12-04 21:49:09.622710300,8.012710205078125,0.2534033060073852,0.4096710085868835,-0.4497910737991333
2024-12-04 21:49:09.632736500,8.022736572265625,0.1361246705055236,0.4016975462436676,-0.3792226314544678
2024-12-04 21:49:09.642762500,8.032762451171875,-0.0151673760265111,0.4197380542755127,-0.3175203800201416
2024-12-04 21:49:09.652788500,8.04278857421875,-0.189216136932373,0.4488032162189483,-0.2439624369144439
2024-12-04 21:49:09.662814500,8.052814453125,-0.3558141589164734,0.4736771583557129,-0.1443522274494171
2024-12-04 21:49:09.672840400,8.06284033203125,-0.4877932965755462,0.4776961207389831,-0.0246570687741041
2024-12-04 21:49:09.682866400,8.072866455078126,-0.6006980538368225,0.4197638630867004,0.1099372208118438
2024-12-04 21:49:09.692892400,8.082892333984375,-0.7280770540237427,0.2683421075344085,0.2580598294734955
2024-12-04 21:49:09.702918400,8.09291845703125,-0.8671488761901855,0.0955192074179649,0.4256618916988373
2024-12-04 21:49:09.712944400,8.1029443359375,-0.985767662525177,-0.0385309010744094,0.6167247891426086
2024-12-04 21:49:09.722970400,8.112970458984375,-1.0841262340545654,-0.1193312108516693,0.8159446716308594
2024-12-04 21:49:09.732996400,8.122996337890624,-1.160805106163025,-0.1228666380047798,1.0112457275390625
2024-12-04 21:49:09.743023400,8.1330234375,-1.2296956777572632,-0.12329912930727,1.1920924186706543
2024-12-04 21:49:09.753049300,8.14304931640625,-1.3018041849136353,-0.1779518574476242,1.3423640727996826
2024-12-04 21:49:09.763075300,8.153075439453126,-1.376181960105896,-0.2861425280570984,1.4432151317596436
2024-12-04 21:49:09.773101300,8.163101318359375,-1.4412230253219604,-0.3789961338043213,1.4915052652359009
2024-12-04 21:49:09.783127300,8.173127197265625,-1.492361068725586,-0.3860124945640564,1.4969903230667114
2024-12-04 21:49:09.793153300,8.1831533203125,-1.5306669473648071,-0.3097694814205169,1.4820529222488403
2024-12-04 21:49:09.803179300,8.19317919921875,-1.5829898118972778,-0.243427500128746,1.451615333557129
2024-12-04 21:49:09.813205200,8.203205322265624,-1.645308494567871,-0.2622363269329071,1.4068872928619385
2024-12-04 21:49:09.823231500,8.2132314453125,-1.7296713590621948,-0.3351893424987793,1.3545223474502563
2024-12-04 21:49:09.833257500,8.223257568359376,-1.8422260284423828,-0.4069348871707916,1.2937273979187012
2024-12-04 21:49:09.843283500,8.233283447265626,-2.0043716430664062,-0.4322940409183502,1.2346168756484983
2024-12-04 21:49:09.853310500,8.243310546875,-2.227402925491333,-0.3802917003631592,1.1575770378112793
2024-12-04 21:49:09.863336200,8.253336181640625,-2.4555916786193848,-0.3240758180618286,1.065376043319702
2024-12-04 21:49:09.873362200,8.263362060546875,-2.630418539047241,-0.2548714876174927,0.941524088382721
2024-12-04 21:49:09.883388200,8.27338818359375,-2.7162559032440186,-0.1545499712228775,0.7824015617370605
2024-12-04 21:49:09.893414100,8.2834140625,-2.711617946624756,-0.028957299888134,0.6105223298072815
2024-12-04 21:49:09.903440000,8.29343994140625,-2.656477451324463,0.1135596334934234,0.4322029054164886
2024-12-04 21:49:09.913465900,8.3034658203125,-2.6027872562408447,0.2404321730136871,0.2505386471748352
2024-12-04 21:49:09.923491800,8.313491943359375,-2.542444467544556,0.3685286343097687,0.0633799359202385
2024-12-04 21:49:09.933517800,8.323517822265625,-2.3919036388397217,0.5494896769523621,-0.1160245537757873
2024-12-04 21:49:09.943544000,8.3335439453125,-2.121586799621582,0.7295516133308411,-0.2644305527210235
2024-12-04 21:49:09.953570000,8.343570068359375,-1.7403160333633425,0.8790175914764404,-0.3868573009967804
2024-12-04 21:49:09.963597000,8.35359716796875,-1.3738662004470823,0.927851676940918,-0.4581772983074188
2024-12-04 21:49:09.973623000,8.363623046875,-1.0328165292739868,0.8283111453056335,-0.4687837660312652
2024-12-04 21:49:09.983649000,8.37364892578125,-0.6766194701194763,0.5985403060913086,-0.4307085275650024
2024-12-04 21:49:09.993675000,8.383675048828126,-0.3475194275379181,0.2822839021682739,-0.3340971767902374
2024-12-04 21:49:10.003701000,8.393700927734375,-0.0726513862609863,-0.0453059412539005,-0.1909961998462677
2024-12-04 21:49:10.013727000,8.40372705078125,0.1372136324644088,-0.2553777694702148,-0.0508469678461551
2024-12-04 21:49:10.023753200,8.413753173828125,0.2847919166088104,-0.2869268953800201,0.0454310998320579
2024-12-04 21:49:10.033779200,8.423779296875,0.3720153272151947,-0.1589338779449463,0.0797028988599777
2024-12-04 21:49:10.043805200,8.43380517578125,0.4040976464748382,0.0321087762713432,0.0742495507001876
2024-12-04 21:49:10.053831200,8.4438310546875,0.3973617553710937,0.1422768682241439,0.0406275689601898
2024-12-04 21:49:10.063857200,8.453857177734376,0.3957396149635315,0.1505089700222015,-0.0155962882563471
2024-12-04 21:49:10.073884000,8.4638837890625,0.4453538358211517,0.1098610684275627,-0.0889322683215141
2024-12-04 21:49:10.083910000,8.473909912109375,0.5475893616676331,0.0743811056017875,-0.1598189622163772
2024-12-04 21:49:10.093935900,8.483935791015625,0.6475234031677246,0.0798127502202987,-0.2177436351776123
2024-12-04 21:49:10.103961900,8.4939619140625,0.7194883823394775,0.1043431237339973,-0.2474173754453659
2024-12-04 21:49:10.113988000,8.503988037109375,0.7865607142448425,0.117651991546154,-0.245153859257698
2024-12-04 21:49:10.124014000,8.51401416015625,0.883659303188324,0.0625005885958671,-0.1984345614910125
2024-12-04 21:49:10.134040000,8.5240400390625,1.0091192722320557,-0.062261339277029,-0.1134533435106277
2024-12-04 21:49:10.144066000,8.534066162109376,1.1454886198043823,-0.2211215645074844,-0.0130633590742945
2024-12-04 21:49:10.154092000,8.544092041015626,1.2737518548965454,-0.3716782629489898,0.0763783603906631
2024-12-04 21:49:10.164118000,8.554117919921875,1.391908884048462,-0.4681544899940491,0.1196254342794418
2024-12-04 21:49:10.174144000,8.56414404296875,1.4881125688552856,-0.5111133456230164,0.0955571755766868
2024-12-04 21:49:10.184170000,8.574169921875,1.5571686029434204,-0.5292848944664001,-0.0057345568202435
2024-12-04 21:49:10.194197000,8.584197021484375,1.5997318029403689,-0.5378129482269287,-0.1612879931926727
2024-12-04 21:49:10.204223200,8.59422314453125,1.6288052797317505,-0.5509707927703857,-0.3225522339344024
2024-12-04 21:49:10.214249200,8.604249267578124,1.6659252643585205,-0.5909029841423035,-0.4612798690795898
2024-12-04 21:49:10.224275200,8.614275146484376,1.716709852218628,-0.640931248664856,-0.559505820274353
2024-12-04 21:49:10.234301200,8.62430126953125,1.7721768617630005,-0.6665425896644592,-0.619015634059906
2024-12-04 21:49:10.244327200,8.6343271484375,1.8260102272033687,-0.6679668426513672,-0.6422011256217957
2024-12-04 21:49:10.254353200,8.644353271484375,1.8620874881744385,-0.6498802900314331,-0.6425877809524536
2024-12-04 21:49:10.264379100,8.654379150390625,1.8872456550598145,-0.6064973473548889,-0.62237948179245
2024-12-04 21:49:10.274405000,8.664405029296875,1.9229187965393064,-0.556807816028595,-0.5957587957382202
2024-12-04 21:49:10.284431000,8.67443115234375,1.9638651609420776,-0.5497661232948303,-0.5715395212173462
2024-12-04 21:49:10.294456800,8.684456787109376,1.9972273111343384,-0.5617358684539795,-0.5557928681373596
2024-12-04 21:49:10.304482800,8.69448291015625,2.0188310146331787,-0.5467271208763123,-0.5582746863365173
2024-12-04 21:49:10.314510000,8.704510009765626,2.0187816619873047,-0.4985457360744476,-0.5744553208351135
2024-12-04 21:49:10.324536000,8.7145361328125,1.99593985080719,-0.4673449695110321,-0.5703623294830322
2024-12-04 21:49:10.334562000,8.72456201171875,1.9605015516281128,-0.432860255241394,-0.5496052503585815
2024-12-04 21:49:10.344588000,8.734588134765625,1.9204628467559808,-0.3817299604415893,-0.5365725159645081
2024-12-04 21:49:10.354614000,8.744614013671875,1.8674259185791016,-0.2701205909252167,-0.5617907047271729
2024-12-04 21:49:10.364640000,8.754639892578124,1.7947263717651367,-0.0938704758882522,-0.6456328630447388
2024-12-04 21:49:10.374666000,8.764666015625,1.6774942874908447,0.1288724392652511,-0.7909278869628906
2024-12-04 21:49:10.384692000,8.77469189453125,1.5285582542419434,0.3724885582923889,-0.9627808332443236
2024-12-04 21:49:10.394718000,8.784718017578125,1.3483020067214966,0.5687853693962097,-1.1358213424682615
2024-12-04 21:49:10.404744200,8.794744140625,1.1364333629608154,0.7107656598091125,-1.287034034729004
2024-12-04 21:49:10.414770200,8.804770263671875,0.906015157699585,0.8098278641700745,-1.3932439088821411
2024-12-04 21:49:10.424797200,8.814797119140625,0.6633314490318298,0.8639279007911682,-1.4362776279449463
2024-12-04 21:49:10.434823000,8.824822998046875,0.4305676519870758,0.8795697093009949,-1.4277427196502686
2024-12-04 21:49:10.444849000,8.834848876953124,0.2248680144548416,0.8706462383270264,-1.378334641456604
2024-12-04 21:49:10.454875000,8.844875,0.0655140951275825,0.8330268263816833,-1.2928614616394043
2024-12-04 21:49:10.464900900,8.85490087890625,-0.0542551800608634,0.78208988904953,-1.1553961038589478
2024-12-04 21:49:10.474926800,8.8649267578125,-0.1271219849586486,0.7043351531028748,-0.9490466117858888
2024-12-04 21:49:10.484953000,8.874953125,-0.1887704282999038,0.5733087062835693,-0.6852818131446838
2024-12-04 21:49:10.494979000,8.88497900390625,-0.2613590955734253,0.3985731601715088,-0.3857562243938446
2024-12-04 21:49:10.505005000,8.895005126953125,-0.3490506112575531,0.2097941637039184,-0.0649617239832878
2024-12-04 21:49:10.515031000,8.905031005859374,-0.45469731092453,0.0790342167019844,0.2711023390293121
2024-12-04 21:49:10.525057000,8.91505712890625,-0.5612397193908691,0.0644763112068176,0.5949780941009521
2024-12-04 21:49:10.535084000,8.925083984375,-0.6591678261756897,0.067417025566101,0.8918899893760681
2024-12-04 21:49:10.545110000,8.935110107421876,-0.7344663143157959,-0.009887084364891,1.164398431777954
2024-12-04 21:49:10.555136000,8.945135986328125,-0.7955293655395508,-0.2022170722484588,1.419129490852356
2024-12-04 21:49:10.565162000,8.955161865234375,-0.8380967974662781,-0.459378570318222,1.6251811981201172
2024-12-04 21:49:10.575188200,8.965188232421875,-0.8713444471359253,-0.6378572583198547,1.7423418760299685
2024-12-04 21:49:10.585214200,8.975214111328125,-0.9150921702384948,-0.6918779015541077,1.7825994491577148
2024-12-04 21:49:10.595240200,8.985240234375,-0.971001923084259,-0.6856207251548767,1.7828656435012815
2024-12-04 21:49:10.605266200,8.99526611328125,-1.0640240907669067,-0.6266822814941406,1.754069209098816
2024-12-04 21:49:10.615292200,9.005292236328126,-1.1806987524032593,-0.5603240728378296,1.707094669342041
2024-12-04 21:49:10.625318100,9.015318115234376,-1.32393479347229,-0.4571233987808227,1.628726601600647
2024-12-04 21:49:10.635344100,9.02534423828125,-1.4914536476135254,-0.3516609668731689,1.5127063989639282
2024-12-04 21:49:10.645370000,9.0353701171875,-1.6782402992248535,-0.2957769334316253,1.3843382596969604
2024-12-04 21:49:10.655396900,9.04539697265625,-1.88358473777771,-0.2611840367317199,1.2472918033599854
2024-12-04 21:49:10.665423000,9.055423095703125,-2.102715492248535,-0.2137664258480072,1.121240735054016
2024-12-04 21:49:10.675449000,9.065448974609374,-2.27886700630188,-0.0978998467326164,1.0221185684204102
2024-12-04 21:49:10.685475000,9.07547509765625,-2.3988730907440186,0.0091062327846884,0.9220668077468872
2024-12-04 21:49:10.695501000,9.0855009765625,-2.4593122005462646,0.0069629643112421,0.8210463523864746
2024-12-04 21:49:10.705527000,9.095527099609376,-2.475627899169922,-0.0025786089245229,0.7266072034835815
2024-12-04 21:49:10.715553000,9.105552978515624,-2.4652552604675293,0.0701107233762741,0.6363747119903564
2024-12-04 21:49:10.725579000,9.1155791015625,-2.4557528495788574,0.1979078352451324,0.5640813112258911
2024-12-04 21:49:10.735605000,9.12560498046875,-2.457170486450196,0.3272886276245117,0.505916953086853
2024-12-04 21:49:10.745631000,9.135630859375,-2.4403069019317627,0.4204960763454437,0.445362776517868
2024-12-04 21:49:10.755657000,9.145656982421874,-2.3885498046875,0.4580380022525787,0.3567125797271728
2024-12-04 21:49:10.765683000,9.155682861328126,-2.306387186050415,0.4544400572776794,0.2246131300926208
2024-12-04 21:49:10.775710200,9.165710205078126,-2.168126344680786,0.4243527352809906,0.0700797438621521
2024-12-04 21:49:10.785736200,9.175736083984376,-1.95215392112732,0.443942129611969,-0.1012592390179634
2024-12-04 21:49:10.795762200,9.18576220703125,-1.6492877006530762,0.5742303729057312,-0.283013254404068
2024-12-04 21:49:10.805788200,9.1957880859375,-1.317379593849182,0.7156165242195129,-0.4520880281925201
2024-12-04 21:49:10.815814100,9.205814208984377,-1.0269160270690918,0.7609322667121887,-0.5803900361061096
2024-12-04 21:49:10.825839900,9.21583984375,-0.8054602742195129,0.6898732781410217,-0.6540384292602539
2024-12-04 21:49:10.835865900,9.225865966796874,-0.6233022809028625,0.5732460618019104,-0.6626086235046387
2024-12-04 21:49:10.845891800,9.235891845703126,-0.3884881734848022,0.4800615310668945,-0.6154975891113281
2024-12-04 21:49:10.855918000,9.24591796875,-0.1819908767938614,0.3787959516048431,-0.5072845220565796
2024-12-04 21:49:10.865944000,9.255944091796875,-0.0547343827784061,0.2052827477455139,-0.3400081992149353
2024-12-04 21:49:10.875970000,9.265969970703123,0.0741686224937439,0.0001009604893624,-0.1335863471031189
2024-12-04 21:49:10.885997300,9.275997314453123,0.2365617901086807,-0.1925976425409317,0.0822186395525932
2024-12-04 21:49:10.896023300,9.286023193359377,0.3912029564380646,-0.344880074262619,0.2629837095737457
2024-12-04 21:49:10.906049300,9.29604931640625,0.5107299089431763,-0.4365766942501068,0.3523378372192383
2024-12-04 21:49:10.916075300,9.3060751953125,0.5931881666183472,-0.4617199301719665,0.3291495144367218
2024-12-04 21:49:10.926101200,9.316101318359374,0.6581575870513916,-0.4195991158485412,0.2136221230030059
2024-12-04 21:49:10.936127200,9.326127197265626,0.7289851903915405,-0.3398547768592834,0.0435833781957626
2024-12-04 21:49:10.946153200,9.3361533203125,0.8019920587539673,-0.2486942261457443,-0.1314808577299118
2024-12-04 21:49:10.956179200,9.34617919921875,0.8737406730651855,-0.1927522122859954,-0.2744429409503937
2024-12-04 21:49:10.966205200,9.356205078125,0.9300188422203064,-0.1531097292900085,-0.3734582066535949
2024-12-04 21:49:10.976231200,9.366231201171876,0.9713426232337952,-0.1001793146133422,-0.434851735830307
2024-12-04 21:49:10.986257400,9.37625732421875,1.0157766342163086,-0.0244837496429681,-0.4735586643218994
2024-12-04 21:49:10.996283400,9.386283447265624,1.0860776901245115,0.0446942150592803,-0.4933883845806122
2024-12-04 21:49:11.006310100,9.39631005859375,1.1975901126861572,0.0346463732421398,-0.4785851836204529
2024-12-04 21:49:11.016336100,9.406336181640626,1.3491185903549194,-0.0846701636910438,-0.418613463640213
2024-12-04 21:49:11.026362000,9.416362060546875,1.5058722496032717,-0.2809909582138061,-0.310493916273117
2024-12-04 21:49:11.036388000,9.42638818359375,1.638030171394348,-0.5002588629722595,-0.1782220751047134
2024-12-04 21:49:11.046414000,9.4364140625,1.722105622291565,-0.6466901302337646,-0.0818380042910575
2024-12-04 21:49:11.056440000,9.446440185546876,1.743885159492493,-0.6870519518852234,-0.0452924259006977
2024-12-04 21:49:11.066466300,9.45646630859375,1.7308058738708496,-0.6867709755897522,-0.070775419473648
2024-12-04 21:49:11.076492300,9.4664921875,1.730163812637329,-0.7177188992500305,-0.1292784512042999
2024-12-04 21:49:11.086518300,9.476518310546876,1.771788239479065,-0.784937858581543,-0.1948329508304596
2024-12-04 21:49:11.096544300,9.486544189453124,1.843072772026062,-0.8113799691200256,-0.2410544008016586
2024-12-04 21:49:11.106570200,9.4965703125,1.928142070770264,-0.7442131638526917,-0.2790212035179138
2024-12-04 21:49:11.116596200,9.50659619140625,1.996445655822754,-0.6095353960990906,-0.3174534142017364
2024-12-04 21:49:11.126623200,9.516623291015623,2.034231424331665,-0.4933124184608459,-0.3425726294517517
2024-12-04 21:49:11.136649200,9.526649169921876,2.0512497425079346,-0.4379197359085083,-0.3563793301582336
2024-12-04 21:49:11.146675200,9.53667529296875,2.0630974769592285,-0.404998779296875,-0.3722837269306183
2024-12-04 21:49:11.156701400,9.546701416015624,2.069931507110596,-0.3178873360157013,-0.4122696816921234
2024-12-04 21:49:11.166727400,9.5567275390625,2.0662972927093506,-0.1706193089485168,-0.4835912585258484
2024-12-04 21:49:11.176753400,9.56675341796875,2.036984920501709,-0.0161822643131017,-0.5684410929679871
2024-12-04 21:49:11.186779100,9.576779052734375,1.9663424491882324,0.1065985187888145,-0.6702641248703003
2024-12-04 21:49:11.196805000,9.58680517578125,1.874358057975769,0.2121700495481491,-0.7680952548980713
2024-12-04 21:49:11.206831000,9.5968310546875,1.754527568817139,0.3294913470745086,-0.8726608157157898
2024-12-04 21:49:11.216857000,9.606857177734376,1.624418020248413,0.4216834902763366,-0.9587606191635132
2024-12-04 21:49:11.226883000,9.616883056640624,1.4742778539657593,0.5017719268798828,-0.9854905009269714
2024-12-04 21:49:11.236910000,9.62691015625,1.2828633785247805,0.6184660196304321,-0.9981656074523926
2024-12-04 21:49:11.246936300,9.636936279296876,1.0868784189224243,0.7536842823028564,-0.989030122756958
2024-12-04 21:49:11.256962300,9.64696240234375,0.8918211460113525,0.8773090839385986,-0.9815854430198668
2024-12-04 21:49:11.266988300,9.65698828125,0.6935877203941345,0.9451035857200624,-0.975291907787323
2024-12-04 21:49:11.277014300,9.66701416015625,0.5129249095916748,0.913130223751068,-0.9665660858154296
2024-12-04 21:49:11.287040300,9.677040283203125,0.3202614188194275,0.8254624009132385,-0.965121328830719
2024-12-04 21:49:11.297066200,9.687066162109376,0.1377515494823455,0.7492896318435669,-0.951494038105011
2024-12-04 21:49:11.307092200,9.69709228515625,-0.0053544798865914,0.7058840990066528,-0.9288300275802612
2024-12-04 21:49:11.317118200,9.7071181640625,-0.1194829195737838,0.6382473111152649,-0.8540900945663452
2024-12-04 21:49:11.327144200,9.717144287109376,-0.2339109629392624,0.5415324568748474,-0.6963561177253723
2024-12-04 21:49:11.337170200,9.727170166015624,-0.3462867736816406,0.4202073514461517,-0.4728056490421295
2024-12-04 21:49:11.347196200,9.737196044921877,-0.4444857835769653,0.2896024584770202,-0.1984084695577621
2024-12-04 21:49:11.357223200,9.74722314453125,-0.5349813103675842,0.1668891459703445,0.1045899912714958
2024-12-04 21:49:11.367249200,9.757249267578125,-0.6292803883552551,0.1083579212427139,0.3890491425991058
2024-12-04 21:49:11.377275100,9.767275146484376,-0.7145840525627136,0.1037103533744812,0.6442922949790955
2024-12-04 21:49:11.387301000,9.777301025390624,-0.7748242616653442,0.019347270950675,0.8843560218811035
2024-12-04 21:49:11.397327000,9.7873271484375,-0.8066526055335999,-0.2021877169609069,1.1289352178573608
2024-12-04 21:49:11.407353000,9.79735302734375,-0.8255091309547424,-0.4652299880981445,1.36660635471344
2024-12-04 21:49:11.417379000,9.807379150390624,-0.8415735363960266,-0.661869466304779,1.5834894180297852
2024-12-04 21:49:11.427405000,9.817405029296877,-0.8656826019287109,-0.7879680395126343,1.779055118560791
2024-12-04 21:49:11.437431000,9.82743115234375,-0.9032667279243468,-0.8647538423538208,1.9460234642028809
2024-12-04 21:49:11.447457300,9.837457275390625,-0.9794560074806212,-0.8809152245521545,2.0526509284973145
2024-12-04 21:49:11.457483300,9.847483154296874,-1.0823640823364258,-0.8961371779441833,2.0927367210388184
2024-12-04 21:49:11.467509200,9.85750927734375,-1.195919632911682,-0.9176515340805054,2.057255506515503
2024-12-04 21:49:11.477536300,9.867536376953124,-1.3138692378997805,-0.9399651288986206,1.9448575973510744
2024-12-04 21:49:11.487562200,9.877562255859376,-1.4350944757461548,-0.9151210784912108,1.7725597620010376
2024-12-04 21:49:11.497588200,9.887588134765624,-1.5748471021652222,-0.8390573263168335,1.569960355758667
2024-12-04 21:49:11.507614200,9.8976142578125,-1.7577868700027466,-0.6968125700950623,1.3737043142318726
2024-12-04 21:49:11.517640200,9.90764013671875,-1.9607632160186768,-0.518766462802887,1.2120308876037598
2024-12-04 21:49:11.527666400,9.91766650390625,-2.170898675918579,-0.3449973464012146,1.064913630485535
2024-12-04 21:49:11.537692400,9.9276923828125,-2.351526975631714,-0.2280501276254654,0.9411513805389404
2024-12-04 21:49:11.547718400,9.937718505859374,-2.469510555267334,-0.1038253903388977,0.8219775557518005
2024-12-04 21:49:11.557744400,9.947744384765626,-2.530755519866944,0.0302455238997936,0.7004969120025635
2024-12-04 21:49:11.567770400,9.957770263671875,-2.5497050285339355,0.1507735252380371,0.5789068341255188
2024-12-04 21:49:11.577796000,9.967796142578123,-2.540491342544556,0.2610211372375488,0.4567040205001831
2024-12-04 21:49:11.587823000,9.977822998046875,-2.507901668548584,0.3698568344116211,0.3334436118602752
2024-12-04 21:49:11.597849000,9.98784912109375,-2.452290296554565,0.4825780093669891,0.2066424638032913
2024-12-04 21:49:11.607875000,9.997875,-2.3926749229431152,0.5577292442321777,0.0829098597168922
2024-12-04 21:49:11.617901300,10.0079013671875,-2.2792439460754395,0.5697421431541443,-0.03608388453722
2024-12-04 21:49:11.627927300,10.01792724609375,-2.047044515609741,0.5639524459838867,-0.1594625413417816
2024-12-04 21:49:11.637953300,10.027953369140626,-1.7101690769195557,0.6042634844779968,-0.2880617678165436
2024-12-04 21:49:11.647979300,10.037979248046875,-1.340795636177063,0.6855114698410034,-0.4190589189529419
2024-12-04 21:49:11.658005200,10.048005126953123,-1.0009673833847046,0.7232394814491272,-0.5235191583633423
2024-12-04 21:49:11.668031200,10.05803125,-0.7347213625907898,0.6825067400932312,-0.5846933126449585
2024-12-04 21:49:11.678057200,10.06805712890625,-0.5501554608345032,0.593389093875885,-0.5843623280525208
2024-12-04 21:49:11.688083200,10.078083251953124,-0.4137075543403625,0.5111938118934631,-0.5240137577056885
2024-12-04 21:49:11.698109200,10.088109130859374,-0.3067799806594848,0.4604665637016296,-0.4034464657306671
2024-12-04 21:49:11.708136400,10.098136474609374,-0.2094225585460662,0.4121768176555633,-0.2479335814714431
2024-12-04 21:49:11.718162200,10.108162109375,-0.0900856181979179,0.3312372863292694,-0.0818016156554222
2024-12-04 21:49:11.728188200,10.118188232421875,0.0623084492981433,0.2056852281093597,0.0637992620468139
2024-12-04 21:49:11.738214100,10.128214111328123,0.2390152066946029,0.0862717255949974,0.1423894166946411
2024-12-04 21:49:11.748240100,10.138240234375,0.3939672410488128,-0.0022229917813092,0.1194851696491241
2024-12-04 21:49:11.758266000,10.14826611328125,0.5257512331008911,-0.0564344860613346,0.002852447098121
2024-12-04 21:49:11.768292000,10.1582919921875,0.6448224782943726,-0.0802873596549034,-0.155879944562912
2024-12-04 21:49:11.778318000,10.168318115234374,0.7522218227386475,-0.0848816484212875,-0.3017004132270813
2024-12-04 21:49:11.788344000,10.178343994140626,0.8412685990333557,-0.0706987157464027,-0.3981508016586303
2024-12-04 21:49:11.798370000,10.1883701171875,0.902466118335724,-0.0218780152499675,-0.446101039648056
2024-12-04 21:49:11.808396000,10.19839599609375,0.9422904849052428,0.0609329789876937,-0.4594578742980957
2024-12-04 21:49:11.818423300,10.20842333984375,0.9748266935348512,0.1235041916370391,-0.4470867812633514
2024-12-04 21:49:11.828449300,10.21844921875,1.0122185945510864,0.0927148535847663,-0.4080927670001983
2024-12-04 21:49:11.838475300,10.228475341796877,1.0774465799331665,-0.0457538552582263,-0.3353162109851837
2024-12-04 21:49:11.848501200,10.238501220703125,1.1719136238098145,-0.2249486446380615,-0.2136917561292648
2024-12-04 21:49:11.858527000,10.24852685546875,1.2752044200897217,-0.4102756381034851,-0.0606651939451694
2024-12-04 21:49:11.868553000,10.258552978515626,1.3753889799118042,-0.6043396592140198,0.057091798633337
2024-12-04 21:49:11.878579000,10.268578857421875,1.472051978111267,-0.7538295388221741,0.0971273630857467
2024-12-04 21:49:11.888605000,10.27860498046875,1.57667338848114,-0.8360431790351868,0.0566598325967788
2024-12-04 21:49:11.898631000,10.288630859375,1.6821225881576538,-0.8371821045875549,-0.0448376350104808
2024-12-04 21:49:11.908657200,10.2986572265625,1.7764099836349487,-0.7659372091293335,-0.1971885561943054
2024-12-04 21:49:11.918683100,10.30868310546875,1.8506054878234863,-0.6545440554618835,-0.3635359108448028
2024-12-04 21:49:11.928709000,10.318709228515624,1.9064730405807493,-0.5209284424781799,-0.5197271108627319
2024-12-04 21:49:11.938735900,10.32873583984375,1.943368673324585,-0.3838682174682617,-0.6441952586174011
2024-12-04 21:49:11.948761900,10.338761962890626,1.968960523605347,-0.2998289763927459,-0.7190505862236023
2024-12-04 21:49:11.958787800,10.348787841796875,1.9752038717269893,-0.3003891110420227,-0.7288859486579895
2024-12-04 21:49:11.968813800,10.358813720703123,1.9859081506729128,-0.3591464161872864,-0.6863954663276672
2024-12-04 21:49:11.978839800,10.36883984375,2.014162063598633,-0.4128550887107849,-0.6053069829940796
2024-12-04 21:49:11.988865800,10.37886572265625,2.029144763946533,-0.412506490945816,-0.5182732939720154
2024-12-04 21:49:11.998892000,10.38889208984375,2.031546115875244,-0.3693237900733948,-0.4655806124210357
2024-12-04 21:49:12.008918000,10.39891796875,2.0176944732666016,-0.2972905933856964,-0.4647896587848663
2024-12-04 21:49:12.018944000,10.408944091796876,1.9740182161331177,-0.2143116742372512,-0.5307706594467163
2024-12-04 21:49:12.028970000,10.418969970703126,1.9026963710784912,-0.0905266180634498,-0.6589656472206116
2024-12-04 21:49:12.038996000,10.428995849609375,1.81156587600708,0.0718763470649719,-0.8141337633132935
2024-12-04 21:49:12.049023000,10.43902294921875,1.67567777633667,0.2651539146900177,-0.9696325063705444
2024-12-04 21:49:12.059049000,10.449049072265623,1.48524808883667,0.5000578165054321,-1.1125444173812866
2024-12-04 21:49:12.069075000,10.459074951171877,1.270368218421936,0.7390403151512146,-1.206436038017273
2024-12-04 21:49:12.079101000,10.469100830078125,1.0269839763641355,0.9258594512939452,-1.255010724067688
2024-12-04 21:49:12.089127200,10.479127197265624,0.775848925113678,1.0923848152160645,-1.30424964427948
2024-12-04 21:49:12.099153200,10.489153076171876,0.5757690668106079,1.178328037261963,-1.2994954586029053
2024-12-04 21:49:12.109179100,10.49917919921875,0.4248600304126739,1.1320513486862185,-1.250878095626831
2024-12-04 21:49:12.119205000,10.509205078125,0.2770722508430481,1.0094637870788574,-1.1771379709243774
2024-12-04 21:49:12.129231000,10.519231201171875,0.1136577650904655,0.9083263278007508,-1.0712262392044067
2024-12-04 21:49:12.139256800,10.5292568359375,-0.037811279296875,0.8477712869644165,-0.9254677295684814
2024-12-04 21:49:12.149282800,10.53928271484375,-0.1488496512174606,0.7858399748802185,-0.753286600112915
2024-12-04 21:49:12.159308800,10.549308837890624,-0.2279402017593383,0.6750264167785645,-0.5748142600059509
2024-12-04 21:49:12.169336000,10.559336181640624,-0.2905266284942627,0.4410754442214966,-0.3784940242767334
2024-12-04 21:49:12.179362000,10.569362060546876,-0.353077620267868,0.1221574917435646,-0.1725427657365799
2024-12-04 21:49:12.189388000,10.579387939453126,-0.443821907043457,-0.1576906740665435,0.043273951858282
2024-12-04 21:49:12.199414000,10.5894140625,-0.5610809326171875,-0.3457291722297668,0.2881467044353485
2024-12-04 21:49:12.209440000,10.59943994140625,-0.6858825087547302,-0.4547483325004577,0.5485601425170898
2024-12-04 21:49:12.219466000,10.609466064453123,-0.7910298705101013,-0.5019228458404541,0.8090114593505859
2024-12-04 21:49:12.229492000,10.619491943359376,-0.8788398504257202,-0.5177856683731079,1.0397597551345823
2024-12-04 21:49:12.239518000,10.62951806640625,-0.9324429035186768,-0.615431010723114,1.2164479494094849
2024-12-04 21:49:12.249544000,10.6395439453125,-0.9589059352874756,-0.7971901297569275,1.3479053974151611
2024-12-04 21:49:12.259570000,10.64956982421875,-1.008509635925293,-0.9699268341064452,1.4181203842163086
2024-12-04 21:49:12.269596000,10.659595947265624,-1.0518933534622192,-1.081189513206482,1.4679515361785889
2024-12-04 21:49:12.279623000,10.669622802734375,-1.1058142185211182,-1.1034131050109863,1.513511300086975
2024-12-04 21:49:12.289649000,10.67964892578125,-1.1899259090423584,-1.0272150039672852,1.5458104610443115
2024-12-04 21:49:12.299675000,10.6896748046875,-1.3268221616744995,-0.8522917032241821,1.5418589115142822
2024-12-04 21:49:12.309700900,10.699700927734376,-1.5082396268844604,-0.6989243030548096,1.512747883796692
2024-12-04 21:49:12.319726800,10.709726806640624,-1.7647857666015625,-0.5679883360862732,1.469854712486267
2024-12-04 21:49:12.329752800,10.7197529296875,-2.086049795150757,-0.4676593542098999,1.4068243503570557
2024-12-04 21:49:12.339778800,10.72977880859375,-2.3582355976104736,-0.3438777923583984,1.3441828489303589
2024-12-04 21:49:12.349804800,10.7398046875,-2.5337934494018555,-0.1842178255319595,1.2588038444519043
2024-12-04 21:49:12.359830800,10.749830810546875,-2.6291513442993164,-0.0882303193211555,1.1265159845352173
2024-12-04 21:49:12.369857000,10.75985693359375,-2.6751437187194824,0.014735740609467,0.9821611642837524
2024-12-04 21:49:12.379883000,10.769883056640625,-2.698716402053833,0.1527960300445556,0.8351214528083801
2024-12-04 21:49:12.389910000,10.779909912109376,-2.699061155319214,0.2971747815608978,0.683914065361023
2024-12-04 21:49:12.399936000,10.78993603515625,-2.648611545562744,0.4393385350704193,0.5300861597061157
2024-12-04 21:49:12.409962000,10.7999619140625,-2.5316882133483887,0.5729493498802185,0.363144040107727
2024-12-04 21:49:12.419988000,10.809988037109376,-2.328645944595337,0.6596290469169617,0.2015145123004913
2024-12-04 21:49:12.430014000,10.820013916015624,-2.043549060821533,0.7191381454467773,0.0361809469759464
2024-12-04 21:49:12.440040000,10.8300400390625,-1.7502202987670898,0.7639886736869812,-0.120528407394886
2024-12-04 21:49:12.450066000,10.84006591796875,-1.4653968811035156,0.796667218208313,-0.2507151663303375
2024-12-04 21:49:12.460092200,10.850092041015625,-1.2063069343566897,0.8015478253364563,-0.3516341745853424
2024-12-04 21:49:12.470118100,10.8601181640625,-0.9676443338394164,0.7938105463981628,-0.4079709351062774
2024-12-04 21:49:12.480144100,10.87014404296875,-0.6781310439109802,0.7744139432907104,-0.4228914976119995
2024-12-04 21:49:12.490170000,10.880170166015626,-0.543363094329834,0.6898037195205688,-0.3443141281604767
2024-12-04 21:49:12.500196000,10.890196044921876,-0.5227267742156982,0.5323382616043091,-0.1786491721868515
2024-12-04 21:49:12.510222800,10.900222900390624,-0.3573164641857147,0.4396077394485473,0.0034095800947397
2024-12-04 21:49:12.520248800,10.910248779296875,-0.2491118460893631,0.3672128021717071,0.1940228939056396
2024-12-04 21:49:12.530274800,10.92027490234375,-0.2018894851207733,0.2449244260787964,0.341788113117218
2024-12-04 21:49:12.540300800,10.93030078125,-0.1457984000444412,0.0445527583360672,0.4231354296207428
2024-12-04 21:49:12.550327000,10.9403271484375,0.0178139563649892,-0.1784273236989975,0.4090422391891479
2024-12-04 21:49:12.560353000,10.95035302734375,0.2611109912395477,-0.3654685318470001,0.2611734867095947
2024-12-04 21:49:12.570379000,10.96037890625,0.4837760031223297,-0.4641937911510467,0.0028505946975201
2024-12-04 21:49:12.580405000,10.970405029296876,0.6165285110473633,-0.4450428783893585,-0.317697525024414
2024-12-04 21:49:12.590431000,10.980430908203124,0.6623199582099915,-0.3120161294937134,-0.6308043599128723
2024-12-04 21:49:12.600457000,10.99045703125,0.6808095574378967,-0.1466570496559143,-0.8644363284111023
2024-12-04 21:49:12.610483000,11.00048291015625,0.6968284249305725,-0.0172567255795002,-0.991557240486145
2024-12-04 21:49:12.620510000,11.010510009765625,0.7275673151016235,0.0768390744924545,-1.03827166557312
2024-12-04 21:49:12.630536200,11.0205361328125,0.793874979019165,0.1247064620256424,-1.033393621444702
2024-12-04 21:49:12.640562200,11.030562255859374,0.9617114067077636,0.119812287390232,-0.997474730014801
2024-12-04 21:49:12.650588200,11.040588134765626,1.104917049407959,0.0308850798755884,-0.8980472087860107
2024-12-04 21:49:12.660614000,11.05061376953125,1.171473741531372,-0.1140416413545608,-0.7280208468437195
2024-12-04 21:49:12.670639900,11.060639892578124,1.1916112899780271,-0.2706866264343261,-0.5308720469474792
2024-12-04 21:49:12.680665900,11.070665771484377,1.2400704622268677,-0.4135333299636841,-0.3637996613979339
2024-12-04 21:49:12.690691800,11.08069189453125,1.3777179718017578,-0.5726656913757324,-0.2531868517398834
2024-12-04 21:49:12.700717800,11.0907177734375,1.4867708683013916,-0.7409024834632874,-0.1745955049991607
2024-12-04 21:49:12.710743800,11.100743896484374,1.5361946821212769,-0.8457266688346863,-0.1189881786704063
2024-12-04 21:49:12.720769800,11.110769775390626,1.5699462890625,-0.8815650343894958,-0.0830282345414161
2024-12-04 21:49:12.730797000,11.120797119140626,1.6309760808944702,-0.8855016827583313,-0.095988243818283
2024-12-04 21:49:12.740823000,11.130822998046876,1.7341476678848269,-0.8757941126823425,-0.1420976370573043
2024-12-04 21:49:12.750849000,11.14084912109375,1.8779182434082031,-0.8323646187782288,-0.1915229707956314
2024-12-04 21:49:12.760875000,11.150875,2.0434446334838867,-0.7382804751396179,-0.2243067473173141
2024-12-04 21:49:12.770901000,11.16090087890625,2.2060062885284424,-0.6338893175125122,-0.2330118268728256
2024-12-04 21:49:12.780927000,11.170927001953125,2.325228691101074,-0.5827614665031433,-0.2239725291728973
2024-12-04 21:49:12.790953000,11.180952880859374,2.34590220451355,-0.6068947315216064,-0.1993017941713333
2024-12-04 21:49:12.800979000,11.19097900390625,2.278087615966797,-0.673114538192749,-0.1764265745878219
2024-12-04 21:49:12.811005000,11.2010048828125,2.142709732055664,-0.7233590483665466,-0.204739972949028
2024-12-04 21:49:12.821031000,11.211031005859375,1.993529677391052,-0.7069858908653259,-0.3250449001789093
2024-12-04 21:49:12.831057200,11.22105712890625,1.8603057861328125,-0.473270058631897,-0.5870134234428406
2024-12-04 21:49:12.841084000,11.231083984375,1.7227998971939087,-0.0494498498737812,-0.9493674635887146
2024-12-04 21:49:12.851110000,11.24110986328125,1.57237446308136,0.4157654941082001,-1.3034647703170776
2024-12-04 21:49:12.861136400,11.251136474609376,1.411575436592102,0.7986534833908081,-1.5660849809646606
2024-12-04 21:49:12.871162600,11.26116259765625,1.2268465757369995,1.0685374736785889,-1.7226834297180176
2024-12-04 21:49:12.881188600,11.271188720703124,1.0798503160476685,1.2221444845199585,-1.7835773229599
2024-12-04 21:49:12.891214600,11.281214599609376,0.9393659830093384,1.252529501914978,-1.775895118713379
2024-12-04 21:49:12.901240600,11.291240478515626,0.8035305738449097,1.1636981964111328,-1.7167352437973022
2024-12-04 21:49:12.911266600,11.3012666015625,0.6496960520744324,1.0126490592956543,-1.607189655303955
2024-12-04 21:49:12.921292500,11.31129248046875,0.4831513464450836,0.890980064868927,-1.4231325387954712
2024-12-04 21:49:12.931318500,11.321318603515625,0.3407861888408661,0.8042025566101074,-1.186963677406311
2024-12-04 21:49:12.941344500,11.331344482421876,0.2187267690896988,0.6694405674934387,-0.9047648906707764
2024-12-04 21:49:12.951370500,11.34137060546875,0.1093022674322128,0.4332368671894073,-0.6088855862617493
2024-12-04 21:49:12.961397800,11.351397705078124,-0.0061854966916143,0.1916594505310058,-0.3148252069950104
2024-12-04 21:49:12.971423700,11.361423828125,-0.1413076370954513,0.0024591663386672,-0.0188457369804382
2024-12-04 21:49:12.981449700,11.37144970703125,-0.30182945728302,-0.1398643106222152,0.2805275321006775
2024-12-04 21:49:12.991475500,11.381475341796875,-0.468002438545227,-0.2370720952749252,0.570926308631897
2024-12-04 21:49:13.001501400,11.39150146484375,-0.6011465787887573,-0.2554611265659332,0.8123577237129211
2024-12-04 21:49:13.011527400,11.40152734375,-0.7001253366470337,-0.2266281396150589,0.975114405155182
2024-12-04 21:49:13.021553400,11.411553466796876,-0.7705956101417542,-0.2287963181734085,1.096003174781799
2024-12-04 21:49:13.031579400,11.421579345703124,-0.8419065475463867,-0.339064210653305,1.193021535873413
2024-12-04 21:49:13.041605400,11.43160546875,-0.9204157590866088,-0.5624864101409912,1.2949035167694092
2024-12-04 21:49:13.051631400,11.44163134765625,-0.9944055676460266,-0.8006750345230103,1.4164988994598389
2024-12-04 21:49:13.061658600,11.45165869140625,-1.0557148456573486,-0.920847713947296,1.516596794128418
2024-12-04 21:49:13.071684600,11.4616845703125,-1.0913162231445312,-0.934987246990204,1.5941534042358398
2024-12-04 21:49:13.081710600,11.471710693359377,-1.126978874206543,-0.9030298590660096,1.663443088531494
2024-12-04 21:49:13.091736600,11.481736572265625,-1.2035343647003174,-0.8709587454795837,1.736278057098389
2024-12-04 21:49:13.101762600,11.491762451171876,-1.3092865943908691,-0.8399084806442261,1.78081476688385
2024-12-04 21:49:13.111788500,11.50178857421875,-1.4292443990707395,-0.8011091351509094,1.7724723815917969
