time,seconds_elapsed,z,y,x
2024-12-04 21:48:44.808697300,0.045697265625,-0.0308970957994461,-0.0128926886245608,-0.1611689925193786
2024-12-04 21:48:44.818731300,0.055731201171875,-0.0485467091202735,0.0083814822137355,-0.1436379253864288
2024-12-04 21:48:44.828766500,0.065766357421875,-0.0714914351701736,0.0404917486011981,-0.1143210604786872
2024-12-04 21:48:44.838800100,0.075800048828125,-0.0961619392037391,0.0743842422962188,-0.0871940925717353
2024-12-04 21:48:44.848835300,0.08583544921875,-0.128286063671112,0.0971691831946373,-0.0646163448691368
2024-12-04 21:48:44.858870300,0.095870361328125,-0.1540044695138931,0.1140306890010833,-0.0572046339511871
2024-12-04 21:48:44.868904400,0.105904541015625,-0.1889243721961975,0.1186850890517234,-0.059660866856575
2024-12-04 21:48:44.878939400,0.115939453125,-0.2455318570137024,0.1085506081581115,-0.0650688409805297
2024-12-04 21:48:44.888974000,0.12597412109375,-0.3013429045677185,0.0884045958518982,-0.0797140896320343
2024-12-04 21:48:44.899008300,0.13600830078125,-0.348203957080841,0.0983294397592544,-0.0802909284830093
2024-12-04 21:48:44.909044200,0.146044189453125,-0.3655025064945221,0.1445989459753036,-0.0699096620082855
2024-12-04 21:48:44.919079200,0.1560791015625,-0.3257780373096466,0.1965069770812988,-0.0635196641087532
2024-12-04 21:48:44.929113000,0.166113037109375,-0.2515072524547577,0.2352511882781982,-0.0555858388543129
2024-12-04 21:48:44.939148300,0.176148193359375,-0.1800642907619476,0.2753773033618927,-0.0395614579319953
2024-12-04 21:48:44.949183200,0.186183349609375,-0.1293590366840362,0.3077821135520935,-0.012222247198224
2024-12-04 21:48:44.959217200,0.196217041015625,-0.1286293417215347,0.3055857717990875,0.024931114166975
2024-12-04 21:48:44.969252000,0.206252197265625,-0.157503604888916,0.2689816951751709,0.068316139280796
2024-12-04 21:48:44.979286300,0.216286376953125,-0.1948350518941879,0.1937657296657562,0.1153313294053077
2024-12-04 21:48:44.989321200,0.2263212890625,-0.2137168645858764,0.0871996060013771,0.157670795917511
2024-12-04 21:48:44.999356200,0.236356201171875,-0.2041729539632797,-0.0272410232573747,0.2001259922981262
2024-12-04 21:48:45.009390000,0.24639013671875,-0.1799757331609726,-0.1347861140966415,0.227463349699974
2024-12-04 21:48:45.019425300,0.25642529296875,-0.1487194895744323,-0.1907017827033996,0.2475910931825637
2024-12-04 21:48:45.029460200,0.266460205078125,-0.127377450466156,-0.1784262061119079,0.2597811818122864
2024-12-04 21:48:45.039494100,0.276494140625,-0.138377234339714,-0.1272685974836349,0.2641575336456299
2024-12-04 21:48:45.049529000,0.286529052734375,-0.1656932830810547,-0.0597180612385273,0.2681190073490143
2024-12-04 21:48:45.059564000,0.29656396484375,-0.18945874273777,0.003823077538982,0.2769416868686676
2024-12-04 21:48:45.069598200,0.30659814453125,-0.2077149748802185,0.0489508733153343,0.2979305982589721
2024-12-04 21:48:45.079633200,0.316633056640625,-0.2059758156538009,0.0637911781668663,0.329633504152298
2024-12-04 21:48:45.089668000,0.326668212890625,-0.1904533058404922,0.040772408246994,0.3636860251426697
2024-12-04 21:48:45.099702000,0.336701904296875,-0.1503355503082275,-0.0090854559093713,0.395081877708435
2024-12-04 21:48:45.109737200,0.3467373046875,-0.0703632235527038,-0.0370904617011547,0.4316947758197784
2024-12-04 21:48:45.119771100,0.356771240234375,0.0865172669291496,-0.0401375778019428,0.4524568915367126
2024-12-04 21:48:45.129806000,0.36680615234375,0.5014330148696899,0.0463832020759582,0.3082880079746246
2024-12-04 21:48:45.139841000,0.376841064453125,0.9001689553260803,0.1949307769536972,0.1639651656150818
2024-12-04 21:48:45.149875200,0.386875244140625,1.1338826417922974,0.3588475286960602,0.0110560404136776
2024-12-04 21:48:45.159910100,0.39691015625,1.1451199054718018,0.4194220006465912,-0.062126025557518
2024-12-04 21:48:45.169945300,0.4069453125,1.0068671703338623,0.4789457619190216,-0.0760498270392417
2024-12-04 21:48:45.179979000,0.41697900390625,0.8053863048553467,0.543430745601654,-0.0731387361884117
2024-12-04 21:48:45.190014200,0.42701416015625,0.5813116431236267,0.5454071164131165,-0.0706958174705505
2024-12-04 21:48:45.200049200,0.437049072265625,0.361764132976532,0.4904813468456268,-0.0610759481787681
2024-12-04 21:48:45.210083300,0.447083251953125,0.1820841133594513,0.4000678360462188,-0.0325428396463394
2024-12-04 21:48:45.220118000,0.457117919921875,0.0454141497611999,0.2926760911941528,0.0257597472518682
2024-12-04 21:48:45.230153000,0.467153076171875,-0.0574531108140945,0.188110277056694,0.1103273630142211
2024-12-04 21:48:45.240187100,0.477187255859375,-0.1480929553508758,0.1097927317023277,0.2044620364904403
2024-12-04 21:48:45.250222000,0.48722216796875,-0.2262332886457443,0.0414496287703514,0.3001614212989807
2024-12-04 21:48:45.260256000,0.497256103515625,-0.2736741602420807,-0.0401505939662456,0.3962180912494659
2024-12-04 21:48:45.270291200,0.507291259765625,-0.2859164178371429,-0.1100662946701049,0.4882870316505432
2024-12-04 21:48:45.280326100,0.517326171875,-0.2650938332080841,-0.1351324021816253,0.580610990524292
2024-12-04 21:48:45.290360300,0.5273603515625,-0.2283406257629394,-0.1377574801445007,0.6758486032485962
2024-12-04 21:48:45.300395300,0.537395263671875,-0.1893814802169799,-0.0905237793922424,0.7900065779685974
2024-12-04 21:48:45.310430000,0.547429931640625,-0.1580187529325485,0.0012602009810507,0.9055350422859192
2024-12-04 21:48:45.320464100,0.557464111328125,-0.1737899035215377,0.0039714826270937,0.9728916883468628
2024-12-04 21:48:45.330499000,0.5674990234375,-0.2507456839084625,-0.1380777955055236,0.9281447529792786
2024-12-04 21:48:45.340534300,0.5775341796875,-0.3774566352367401,-0.290433257818222,0.8110727071762085
2024-12-04 21:48:45.350568000,0.58756787109375,-0.5408756732940674,-0.4334524571895599,0.6879513263702393
2024-12-04 21:48:45.360603100,0.59760302734375,-0.6922083497047424,-0.6106706261634827,0.5886159539222717
2024-12-04 21:48:45.370638000,0.60763818359375,-0.8252955675125122,-0.7997915744781494,0.4867902398109436
2024-12-04 21:48:45.380672300,0.61767236328125,-0.9658148884773254,-1.0243995189666748,0.405910849571228
2024-12-04 21:48:45.390707200,0.627707275390625,-1.1045162677764893,-1.202215313911438,0.3687632083892822
2024-12-04 21:48:45.400742100,0.6377421875,-1.225325584411621,-1.267231583595276,0.3747678399085998
2024-12-04 21:48:45.410776000,0.647776123046875,-1.3193529844284058,-1.1648324728012085,0.3426546454429626
2024-12-04 21:48:45.420811300,0.657811279296875,-1.3652784824371338,-0.944588303565979,0.350471168756485
2024-12-04 21:48:45.430846200,0.66784619140625,-1.321921706199646,-0.783704400062561,0.3745408058166504
2024-12-04 21:48:45.440880000,0.677880126953125,-1.2084474563598633,-0.6978884935379028,0.3364342749118805
2024-12-04 21:48:45.450915000,0.6879150390625,-1.048185110092163,-0.6477054357528687,0.2798410356044769
2024-12-04 21:48:45.460949200,0.69794921875,-0.8597496151924133,-0.6300597190856934,0.1999805569648742
2024-12-04 21:48:45.470984200,0.707984130859375,-0.6899893879890442,-0.6199545860290527,0.1147508844733238
2024-12-04 21:48:45.481019100,0.71801904296875,-0.5488852262496948,-0.5925824642181396,0.0189122408628463
2024-12-04 21:48:45.491053000,0.728052978515625,-0.4239944517612457,-0.5468772649765015,-0.0728501677513122
2024-12-04 21:48:45.501088300,0.738088134765625,-0.3202919363975525,-0.5042895674705505,-0.1614715307950973
2024-12-04 21:48:45.511123200,0.748123291015625,-0.2449284791946411,-0.436791718006134,-0.224372997879982
2024-12-04 21:48:45.521157400,0.758157470703125,-0.1970918029546737,-0.3664419054985046,-0.2660947442054748
2024-12-04 21:48:45.531192000,0.768192138671875,-0.1742149740457534,-0.3014759421348572,-0.2694686949253082
2024-12-04 21:48:45.541227000,0.77822705078125,-0.1860764622688293,-0.248982772231102,-0.2422812581062317
2024-12-04 21:48:45.551261200,0.78826123046875,-0.2174940407276153,-0.2116527110338211,-0.1870443671941757
2024-12-04 21:48:45.561296100,0.798296142578125,-0.2594341039657593,-0.1543975174427032,-0.1283799856901168
2024-12-04 21:48:45.571331300,0.808331298828125,-0.2995721995830536,-0.0748212113976478,-0.0810974165797233
2024-12-04 21:48:45.581365000,0.818364990234375,-0.3391681313514709,-0.015250077471137,-0.0616900697350502
2024-12-04 21:48:45.591400200,0.828400146484375,-0.3852325677871704,-0.0061428658664226,-0.0730077028274536
2024-12-04 21:48:45.601435100,0.83843505859375,-0.4116531610488891,0.0074791028164327,-0.0954248234629631
2024-12-04 21:48:45.611469300,0.84846923828125,-0.4268006980419159,0.0226846877485513,-0.10293760150671
2024-12-04 21:48:45.621504000,0.85850390625,-0.4203741550445556,0.0598026029765605,-0.0978685617446899
2024-12-04 21:48:45.631539200,0.868539306640625,-0.3898064196109772,0.1251706928014755,-0.0822784155607223
2024-12-04 21:48:45.641573000,0.878572998046875,-0.3549784123897552,0.2012460976839065,-0.0694112107157707
2024-12-04 21:48:45.651608300,0.8886083984375,-0.3144051432609558,0.263731837272644,-0.0589830726385116
2024-12-04 21:48:45.661642000,0.89864208984375,-0.2837020754814148,0.2885136902332306,-0.0598800331354141
2024-12-04 21:48:45.671677200,0.90867724609375,-0.2560856342315674,0.2899296879768371,-0.0711515918374061
2024-12-04 21:48:45.681712000,0.918712158203125,-0.2227916419506073,0.2854920923709869,-0.0771728530526161
2024-12-04 21:48:45.691746300,0.928746337890625,-0.1446779370307922,0.2427123934030532,-0.0765078589320182
2024-12-04 21:48:45.701781000,0.938781005859375,-0.0146762151271104,0.1904443949460983,-0.084648497402668
2024-12-04 21:48:45.711816200,0.948816162109375,0.1127696260809898,0.183968111872673,-0.1005489006638526
2024-12-04 21:48:45.721850000,0.95885009765625,0.1917940974235534,0.1893573403358459,-0.1102427914738655
2024-12-04 21:48:45.731885300,0.96888525390625,0.239572525024414,0.1890188455581665,-0.1105429306626319
2024-12-04 21:48:45.741920300,0.978920166015625,0.2836858630180359,0.1876867264509201,-0.1120184436440467
2024-12-04 21:48:45.751954200,0.9889541015625,0.3255004286766052,0.1646554470062255,-0.1099196076393127
2024-12-04 21:48:45.761989000,0.998989013671875,0.3537614047527313,0.1321713030338287,-0.0957296192646026
2024-12-04 21:48:45.772024000,1.009024169921875,0.3686772286891937,0.1171665266156196,-0.072274625301361
2024-12-04 21:48:45.782058200,1.019058349609375,0.3818620145320892,0.1046478450298309,-0.056526955217123
2024-12-04 21:48:45.792093000,1.029093017578125,0.3858127892017364,0.0833311080932617,-0.0643452033400535
2024-12-04 21:48:45.802128100,1.039128173828125,0.3888683319091797,0.0627788752317428,-0.0807271227240562
2024-12-04 21:48:45.812162000,1.049162109375,0.3847135305404663,0.0624752752482891,-0.1020587757229805
2024-12-04 21:48:45.822197200,1.059197265625,0.3772017657756805,0.0589185543358325,-0.1080893576145172
2024-12-04 21:48:45.832232200,1.069232177734375,0.3573282063007355,0.0562452711164951,-0.0874328166246414
2024-12-04 21:48:45.842266000,1.07926611328125,0.3331722915172577,0.0335600823163986,-0.0528258420526981
2024-12-04 21:48:45.852301000,1.089301025390625,0.3083849251270294,-0.0068467278033494,-0.0057286377996206
2024-12-04 21:48:45.862336300,1.099336181640625,0.2708526849746704,-0.0179572440683841,0.0436756685376167
2024-12-04 21:48:45.872370200,1.1093701171875,0.2375181764364242,-0.0272338334470987,0.062137234956026
2024-12-04 21:48:45.882405000,1.119405029296875,0.2106925547122955,-0.0415297858417034,0.0473733656108379
2024-12-04 21:48:45.892440000,1.129440185546875,0.1680425703525543,-0.0540684834122657,0.0016463589854538
2024-12-04 21:48:45.902473200,1.13947314453125,0.1295512467622757,-0.0516032017767429,-0.0441207699477672
2024-12-04 21:48:45.912508200,1.149508056640625,0.1129128858447074,-0.0157645139843225,-0.0806412324309349
2024-12-04 21:48:45.922542300,1.159542236328125,0.1070807576179504,0.0241388138383626,-0.1091139987111091
2024-12-04 21:48:45.932577000,1.169576904296875,0.1103532463312149,0.0503166206181049,-0.1260951161384582
2024-12-04 21:48:45.942612200,1.1796123046875,0.1127283200621604,0.0680581778287887,-0.1364657431840896
2024-12-04 21:48:45.952646100,1.189646240234375,0.1071077212691307,0.068175084888935,-0.1373099684715271
2024-12-04 21:48:45.962681300,1.199681396484375,0.099600039422512,0.0447487831115722,-0.1368438005447387
2024-12-04 21:48:45.972716300,1.20971630859375,0.0792867764830589,0.0023235601838678,-0.1417879462242126
2024-12-04 21:48:45.982750200,1.219750244140625,0.0554422959685325,-0.0314553566277027,-0.1311945170164108
2024-12-04 21:48:45.992785200,1.22978515625,0.0359154678881168,-0.0564664304256439,-0.1185916438698768
2024-12-04 21:48:46.002820400,1.2398203125,0.0226929299533367,-0.0791285708546638,-0.1088599413633346
2024-12-04 21:48:46.012854300,1.249854248046875,0.0189431980252265,-0.1067380905151367,-0.1059706807136535
2024-12-04 21:48:46.022889200,1.25988916015625,0.0214284975081682,-0.1378556042909622,-0.0932361111044883
2024-12-04 21:48:46.032924200,1.269924072265625,0.0270088855177164,-0.1704889088869094,-0.0807243138551712
2024-12-04 21:48:46.042958300,1.279958251953125,0.0257697012275457,-0.1765072047710418,-0.0778398513793945
2024-12-04 21:48:46.052993300,1.2899931640625,0.0218218322843313,-0.1629437208175659,-0.0935293287038803
2024-12-04 21:48:46.063028200,1.3000283203125,0.0183550659567117,-0.1378369182348251,-0.1058557331562042
2024-12-04 21:48:46.073062100,1.310062255859375,0.0244792718440294,-0.0963874757289886,-0.1050634384155273
2024-12-04 21:48:46.083097300,1.320097412109375,0.0440006107091903,-0.0661803185939788,-0.0938552916049957
2024-12-04 21:48:46.093132300,1.33013232421875,0.0493980385363101,-0.0407031886279583,-0.0847227796912193
2024-12-04 21:48:46.103166500,1.34016650390625,0.0453097634017467,-0.0118955411016941,-0.0885182991623878
2024-12-04 21:48:46.113201200,1.350201171875,0.0350126512348651,0.0192794222384691,-0.0994345992803573
2024-12-04 21:48:46.123236000,1.360236083984375,0.0285946540534496,0.0428503043949604,-0.1113663464784622
2024-12-04 21:48:46.133270300,1.370270263671875,0.0282188821583986,0.0643095225095748,-0.122733786702156
2024-12-04 21:48:46.143305200,1.38030517578125,0.0255129225552082,0.0830082595348358,-0.122524082660675
2024-12-04 21:48:46.153340400,1.39034033203125,0.0213496033102273,0.0903292894363403,-0.1233110427856445
2024-12-04 21:48:46.163374000,1.4003740234375,0.0146201122552156,0.0868711620569229,-0.1256659477949142
2024-12-04 21:48:46.173409300,1.4104091796875,0.0090871285647153,0.0795999392867088,-0.1122108697891235
2024-12-04 21:48:46.183444200,1.4204443359375,0.011344576254487,0.0839192569255828,-0.098446287214756
2024-12-04 21:48:46.193478400,1.430478515625,0.0139494137838482,0.0985621139407157,-0.0976771637797355
2024-12-04 21:48:46.203513000,1.44051318359375,0.0120852934196591,0.0935260280966758,-0.0925595313310623
2024-12-04 21:48:46.213548300,1.45054833984375,0.0081166513264179,0.0885411202907562,-0.0877439975738525
2024-12-04 21:48:46.223582200,1.460582275390625,0.0117835784330964,0.1030780971050262,-0.0767575427889823
2024-12-04 21:48:46.233617400,1.470617431640625,0.0087537001818418,0.1113629266619682,-0.077217198908329
2024-12-04 21:48:46.243652400,1.48065234375,-0.0090965097770094,0.0824641436338424,-0.0739003345370292
2024-12-04 21:48:46.253686300,1.490686279296875,-0.0382181741297245,0.0190167222172021,-0.0732601135969162
2024-12-04 21:48:46.263721200,1.50072119140625,-0.0607399828732013,0.0146968849003314,-0.0892484039068222
2024-12-04 21:48:46.273756200,1.510756103515625,-0.0771764814853668,0.0381153933703899,-0.1138541474938392
2024-12-04 21:48:46.283790300,1.520790283203125,-0.0974660068750381,-0.003331234678626,-0.1326896399259567
2024-12-04 21:48:46.293825000,1.530824951171875,-0.1167390346527099,-0.0361602865159511,-0.1222809329628944
2024-12-04 21:48:46.303860200,1.540860107421875,-0.1181344017386436,0.0273846853524446,-0.0861709490418434
2024-12-04 21:48:46.313894100,1.55089404296875,-0.0928708538413047,0.1101578623056411,-0.0260149389505386
2024-12-04 21:48:46.323929300,1.560929443359375,-0.059067279100418,0.1258456259965896,0.0271988585591316
2024-12-04 21:48:46.333964300,1.57096435546875,-0.0474577620625495,0.120362177491188,0.045981865376234
2024-12-04 21:48:46.343998200,1.580998291015625,-0.058967150747776,0.0681942775845527,0.0378889217972755
2024-12-04 21:48:46.354033200,1.591033203125,-0.0748609006404876,-0.0001597474329173,-0.0095379836857318
2024-12-04 21:48:46.364068400,1.601068359375,-0.0983857065439224,-0.0285482034087181,-0.0918179303407669
2024-12-04 21:48:46.374102300,1.611102294921875,-0.0680357962846756,-0.0250107273459434,-0.1497773677110672
2024-12-04 21:48:46.384137200,1.62113720703125,0.0158787686377763,0.0280042886734008,-0.1968528479337692
2024-12-04 21:48:46.394171100,1.631171142578125,0.0946449562907219,0.1120978593826294,-0.2511403262615204
2024-12-04 21:48:46.404206300,1.641206298828125,0.1856415122747421,0.2381560355424881,-0.2701760828495025
2024-12-04 21:48:46.414241300,1.6512412109375,0.2509573996067047,0.4622658193111419,-0.2462113797664642
2024-12-04 21:48:46.424275200,1.661275146484375,0.3137058019638061,0.680147111415863,-0.2192386239767074
2024-12-04 21:48:46.434310100,1.67131005859375,0.4083348214626312,0.8070347309112549,-0.2473032772541046
2024-12-04 21:48:46.444345300,1.681345458984375,0.4197827875614166,0.8396205902099609,-0.3297759592533111
2024-12-04 21:48:46.454379300,1.691379150390625,0.359231024980545,0.7759931087493896,-0.4116825461387634
2024-12-04 21:48:46.464414200,1.701414306640625,0.2790601551532745,0.6750584244728088,-0.4860873520374298
2024-12-04 21:48:46.474449200,1.71144921875,0.2391255348920822,0.5292519330978394,-0.5215820074081421
2024-12-04 21:48:46.484484000,1.721484130859375,0.2068114876747131,0.3509386777877807,-0.4504618346691131
2024-12-04 21:48:46.494518300,1.731518310546875,0.1144458651542663,0.1657757312059402,-0.2650030255317688
2024-12-04 21:48:46.504553200,1.74155322265625,-0.0481744110584259,-0.0230588614940643,-0.0259579736739397
2024-12-04 21:48:46.514587100,1.751587158203125,-0.2011114954948425,-0.0797844603657722,0.2069405317306518
2024-12-04 21:48:46.524622000,1.7616220703125,-0.3069764077663421,-0.0747820883989334,0.334807813167572
2024-12-04 21:48:46.534657300,1.7716572265625,-0.3483571410179138,-0.1283292025327682,0.3053521811962127
2024-12-04 21:48:46.544691200,1.781691162109375,-0.3799923956394195,-0.3034644424915313,0.2050578296184539
2024-12-04 21:48:46.554726100,1.79172607421875,-0.4727305769920349,-0.5818854570388794,0.133041962981224
2024-12-04 21:48:46.564761000,1.801760986328125,-0.6023223400115967,-0.9120216369628906,0.1670205444097519
2024-12-04 21:48:46.574795300,1.811795166015625,-0.7106053829193115,-1.330031156539917,0.2747502028942108
2024-12-04 21:48:46.584830200,1.821830322265625,-0.6441848278045654,-1.767305850982666,0.4408604800701141
2024-12-04 21:48:46.594865400,1.831865478515625,-0.3343553245067596,-1.9748390913009644,0.6904674172401428
2024-12-04 21:48:46.604899000,1.841899169921875,0.0818631052970886,-2.059700489044189,0.9453357458114624
2024-12-04 21:48:46.614934300,1.851934326171875,0.4922346472740173,-2.1178672313690186,1.1427996158599854
2024-12-04 21:48:46.624969200,1.86196923828125,0.7970020771026611,-2.264923095703125,1.194589376449585
2024-12-04 21:48:46.635003400,1.87200341796875,0.9378979802131652,-2.504829168319702,1.1115049123764038
2024-12-04 21:48:46.645038000,1.8820380859375,0.8652255535125732,-2.579819440841675,0.9919321537017822
2024-12-04 21:48:46.655073300,1.8920732421875,0.6366299390792847,-2.227045774459839,0.8746987581253052
2024-12-04 21:48:46.665107200,1.902107177734375,0.4819816350936889,-2.596279621124268,0.8964247703552246
2024-12-04 21:48:46.675142400,1.912142333984375,0.4196724593639374,-3.1864516735076904,1.1620899438858032
2024-12-04 21:48:46.685177300,1.92217724609375,0.2023764699697494,-3.2828924655914307,1.5098282098770142
2024-12-04 21:48:46.695211300,1.932211181640625,-0.1474686115980148,-2.90818738937378,1.433804273605347
2024-12-04 21:48:46.705246200,1.94224609375,-0.4256277680397033,-3.3216052055358887,1.2422609329223633
2024-12-04 21:48:46.715281200,1.95228125,-0.3357926905155182,-3.4886927604675293,1.459719181060791
2024-12-04 21:48:46.725315300,1.9623154296875,-0.3188997209072113,-3.743896722793579,1.8439058065414429
2024-12-04 21:48:46.735350000,1.97235009765625,-0.4924334287643432,-4.443787097930908,2.2066664695739746
2024-12-04 21:48:46.745385200,1.98238525390625,-0.7574462294578552,-5.09187126159668,2.4167182445526123
2024-12-04 21:48:46.755419100,1.992419189453125,-0.9929980039596558,-5.649966716766357,2.430136442184448
2024-12-04 21:48:46.765454300,2.002454345703125,-1.1935529708862305,-6.292490482330322,2.3025643825531006
2024-12-04 21:48:46.775489300,2.0124892578125,-1.3744641542434692,-7.102477073669434,2.1056504249572754
2024-12-04 21:48:46.785523200,2.022523193359375,-1.5315958261489868,-8.352899551391602,2.0162203311920166
2024-12-04 21:48:46.795558100,2.03255810546875,-1.631384253501892,-9.841235160827637,1.92707109451294
2024-12-04 21:48:46.805593300,2.04259326171875,-1.6039209365844729,-10.914711952209473,1.742746114730835
2024-12-04 21:48:46.815628300,2.052628173828125,-1.141987919807434,-11.132818222045898,1.48214852809906
2024-12-04 21:48:46.825662200,2.062662109375,-0.4606414139270782,-10.565967559814451,1.0952132940292358
2024-12-04 21:48:46.835697200,2.072697265625,0.156053751707077,-9.998190879821776,0.8158658146858215
2024-12-04 21:48:46.845731300,2.0827314453125,0.2880647778511047,-8.970785140991211,0.4881331920623779
2024-12-04 21:48:46.855766300,2.092766357421875,0.3403074741363525,-8.247345924377441,0.2722797095775604
2024-12-04 21:48:46.865801200,2.10280126953125,0.5844907164573669,-7.62494421005249,0.180019274353981
2024-12-04 21:48:46.875836200,2.112836181640625,1.1086524724960327,-7.13004207611084,0.1180464476346969
2024-12-04 21:48:46.885870300,2.122870361328125,1.8433256149291992,-6.681581020355225,0.3316237926483154
2024-12-04 21:48:46.895905300,2.1329052734375,2.436124801635742,-6.165654182434082,0.8461880683898926
2024-12-04 21:48:46.905941200,2.142941162109375,2.5878868103027344,-5.095384120941162,1.7683864831924438
2024-12-04 21:48:46.915975400,2.152975341796875,2.429460287094116,-3.5163252353668213,2.640132665634156
2024-12-04 21:48:46.926010400,2.16301025390625,2.276557207107544,-2.0458781719207764,3.3571815490722656
2024-12-04 21:48:46.936045300,2.17304541015625,2.3051295280456543,-0.9898552298545836,3.8974976539611816
2024-12-04 21:48:46.946079200,2.183079345703125,2.490635633468628,-0.2145736962556839,4.174136638641357
2024-12-04 21:48:46.956114200,2.1931142578125,2.742901086807251,0.24399334192276,4.180342674255371
2024-12-04 21:48:46.966149400,2.2031494140625,2.9744346141815186,0.5540747046470642,3.891498327255249
2024-12-04 21:48:46.976183300,2.213183349609375,3.067817449569702,0.8032786250114441,3.471384048461914
2024-12-04 21:48:46.986218500,2.223218505859375,3.048887014389038,1.01992928981781,3.1371493339538574
2024-12-04 21:48:46.996253200,2.233253173828125,3.0011417865753174,1.154193878173828,3.032264947891236
2024-12-04 21:48:47.006287400,2.243287353515625,2.885507583618164,1.2033143043518066,3.083390235900879
2024-12-04 21:48:47.016322300,2.253322265625,2.6062240600585938,1.0150471925735474,3.1140899658203125
2024-12-04 21:48:47.026357500,2.263357421875,2.1868066787719727,0.5887949466705322,3.0665249824523926
2024-12-04 21:48:47.036391200,2.27339111328125,1.7252014875411987,0.0856178253889083,2.9353318214416504
2024-12-04 21:48:47.046426400,2.28342626953125,1.3737013339996338,-0.3521257638931274,2.792494773864746
2024-12-04 21:48:47.056461300,2.29346142578125,1.1813126802444458,-0.6497952342033386,2.6958632469177246
2024-12-04 21:48:47.066495500,2.30349560546875,1.103074312210083,-0.9856200218200684,2.578036308288574
2024-12-04 21:48:47.076530400,2.313530517578125,0.948032021522522,-1.2294918298721311,2.485314130783081
2024-12-04 21:48:47.086565400,2.3235654296875,0.6678138971328735,-1.3913482427597046,2.463983058929444
2024-12-04 21:48:47.096599300,2.333599365234375,0.3135007917881012,-1.4827959537506104,2.45247745513916
2024-12-04 21:48:47.106634500,2.343634521484375,-0.0593068227171897,-1.4801557064056396,2.4774088859558105
2024-12-04 21:48:47.116669400,2.35366943359375,-0.3832079172134399,-1.455100417137146,2.508881092071533
2024-12-04 21:48:47.126703400,2.363703369140625,-0.6560934782028198,-1.381672501564026,2.539590358734131
2024-12-04 21:48:47.136738300,2.37373828125,-0.8075096607208252,-0.8749020099639893,2.438769817352295
2024-12-04 21:48:47.146773200,2.383773193359375,-0.8350212574005127,-0.2415086776018142,2.1729936599731445
2024-12-04 21:48:47.156807400,2.393807373046875,-0.6711180806159973,0.4873652160167694,1.6210129261016846
2024-12-04 21:48:47.166842400,2.40384228515625,-0.4188612699508667,0.9610509276390076,0.787360668182373
2024-12-04 21:48:47.176877300,2.413877197265625,-0.264100432395935,1.1448293924331665,-0.213996410369873
2024-12-04 21:48:47.186911200,2.4239111328125,-0.3075461387634277,1.1654809713363647,-0.9853560328483582
2024-12-04 21:48:47.196946400,2.433946533203125,-0.4847036004066467,1.0560476779937744,-1.2139934301376345
2024-12-04 21:48:47.206981400,2.4439814453125,-0.5618324875831604,0.9747612476348876,-0.9674099087715148
2024-12-04 21:48:47.217015300,2.454015380859375,-0.530252993106842,0.8133955001831055,-0.460156500339508
2024-12-04 21:48:47.227050200,2.46405029296875,-0.4815382659435272,0.3853289783000946,0.1310788542032241
2024-12-04 21:48:47.237085400,2.47408544921875,-0.4123919606208801,-0.063519649207592,0.6969518065452576
2024-12-04 21:48:47.247119400,2.484119384765625,-0.2817041873931885,-0.5525972247123718,1.2466450929641724
2024-12-04 21:48:47.257154600,2.494154541015625,-0.1482705324888229,-1.236181139945984,1.8508625030517576
2024-12-04 21:48:47.267189200,2.504189208984375,-0.1227780729532241,-1.3776918649673462,2.498387575149536
2024-12-04 21:48:47.277223400,2.514223388671875,-0.3492825925350189,-1.4446812868118286,2.993622064590454
2024-12-04 21:48:47.287258400,2.52425830078125,-0.696496307849884,-1.213502287864685,3.347970962524414
2024-12-04 21:48:47.297293300,2.534293212890625,-0.9600149989128112,-0.932466447353363,3.4413416385650635
2024-12-04 21:48:47.307327200,2.5443271484375,-1.1049606800079346,-0.8129673600196838,3.076754331588745
2024-12-04 21:48:47.317362400,2.554362548828125,-1.1957968473434448,-0.6211353540420532,2.6953258514404297
2024-12-04 21:48:47.327397400,2.5643974609375,-1.184817671775818,-0.26615771651268,2.260018110275269
2024-12-04 21:48:47.337431600,2.574431640625,-1.4525386095046997,0.1170456036925315,2.118593692779541
2024-12-04 21:48:47.347466500,2.584466552734375,-1.4868929386138916,0.4177346229553222,1.814995288848877
2024-12-04 21:48:47.357501200,2.594501220703125,-1.3895310163497925,0.7371472120285034,1.0730551481246948
2024-12-04 21:48:47.367535400,2.604535400390625,-1.4084316492080688,1.0265456438064575,0.2246950715780258
2024-12-04 21:48:47.377570300,2.6145703125,-1.558281421661377,1.0479915142059326,-0.247041568160057
2024-12-04 21:48:47.387605500,2.62460546875,-1.8082557916641235,0.5910280346870422,-0.2970706820487976
2024-12-04 21:48:47.397640400,2.634640380859375,-2.0074455738067627,0.4925403892993927,-0.2381442487239837
2024-12-04 21:48:47.407674400,2.64467431640625,-2.101207733154297,0.0230089277029037,-0.155195266008377
2024-12-04 21:48:47.417709300,2.654709228515625,-1.9021427631378167,-0.558080792427063,-0.188874140381813
2024-12-04 21:48:47.427744500,2.66474462890625,-1.7406824827194214,-1.0463277101516724,-0.233832374215126
2024-12-04 21:48:47.437778400,2.6747783203125,-2.031735181808472,-0.8215522170066833,0.0115052163600921
2024-12-04 21:48:47.447813400,2.6848134765625,-2.08475923538208,-0.74032062292099,0.2205326557159423
2024-12-04 21:48:47.457848300,2.694848388671875,-1.8436148166656487,-0.9807161688804626,0.0116074131801724
2024-12-04 21:48:47.467882500,2.704882568359375,-1.4981892108917236,-1.4003090858459473,-0.4158461093902588
2024-12-04 21:48:47.477917400,2.71491748046875,-1.3448326587677002,-1.7419745922088623,-0.4882201850414276
2024-12-04 21:48:47.487952400,2.724952392578125,-1.412880301475525,-1.7300195693969729,-0.1534847021102905
2024-12-04 21:48:47.497986300,2.734986328125,-1.5679402351379397,-1.4784804582595823,0.2902349531650543
2024-12-04 21:48:47.508021200,2.745021240234375,-1.8070893287658687,-1.3762675523757937,0.5775598287582397
2024-12-04 21:48:47.518056400,2.755056396484375,-2.0050621032714844,-1.360771656036377,0.5751749873161316
2024-12-04 21:48:47.528090400,2.76509033203125,-1.9709937572479248,-1.3044878244400024,0.3294258117675781
2024-12-04 21:48:47.538125300,2.775125244140625,-1.826038718223572,-1.29561185836792,0.0054717073217034
2024-12-04 21:48:47.548160300,2.78516015625,-1.7702089548110962,-1.227851629257202,-0.4221567809581756
2024-12-04 21:48:47.558194400,2.7951943359375,-1.80055570602417,-1.0795502662658691,-0.9639531970024108
2024-12-04 21:48:47.568229400,2.8052294921875,-1.887594103813172,-0.717810332775116,-1.1453427076339722
2024-12-04 21:48:47.578264600,2.8152646484375,-2.1512601375579834,-0.122938148677349,-1.055046558380127
2024-12-04 21:48:47.588298200,2.82529833984375,-2.172994375228882,0.4837302267551422,-1.3183530569076538
2024-12-04 21:48:47.598333400,2.83533349609375,-2.458765983581543,0.4672388732433319,-1.4776651859283447
2024-12-04 21:48:47.608368400,2.845368408203125,-2.15220308303833,0.9480714201927184,-0.8632864952087402
2024-12-04 21:48:47.618402300,2.85540234375,-1.9887431859970093,0.9326921701431274,-0.320744127035141
2024-12-04 21:48:47.628437200,2.865437255859375,-2.08652400970459,0.6898806691169739,0.4110661149024963
2024-12-04 21:48:47.638472200,2.87547216796875,-2.225410461425781,0.6243749260902405,1.211172103881836
2024-12-04 21:48:47.648507400,2.88550732421875,-2.3630237579345703,0.3572007119655609,1.6845922470092771
2024-12-04 21:48:47.658541600,2.89554150390625,-2.3022117614746094,-0.0242462437599897,2.3325932025909424
2024-12-04 21:48:47.668576500,2.905576416015625,-1.816626787185669,-0.3877016901969909,2.977357149124145
2024-12-04 21:48:47.678611200,2.915611083984375,-1.254523992538452,-0.1872095912694931,3.383728265762329
2024-12-04 21:48:47.688645400,2.925645263671875,-0.5747830271720886,-0.0641029179096221,2.7637364864349365
2024-12-04 21:48:47.698680300,2.935680419921875,0.0847991108894348,-0.1390716880559921,2.195949077606201
2024-12-04 21:48:47.708715500,2.945715576171875,0.529456615447998,-0.3661273121833801,2.04041600227356
2024-12-04 21:48:47.718749200,2.955749267578125,0.8064208030700684,-0.5091809034347534,2.02066707611084
2024-12-04 21:48:47.728784400,2.965784423828125,1.140318751335144,-0.5546492338180542,1.7760273218154907
2024-12-04 21:48:47.738819300,2.9758193359375,1.6154723167419434,-0.7133288979530334,1.3591506481170654
2024-12-04 21:48:47.748853500,2.985853515625,2.3891520500183105,-1.0144774913787842,0.8936648964881897
2024-12-04 21:48:47.758888200,2.99588818359375,4.287247657775879,-1.8053176403045648,0.6254292130470276
2024-12-04 21:48:47.768923400,3.00592333984375,7.823205471038818,-3.095240831375122,0.7767149806022644
2024-12-04 21:48:47.778957300,3.015957275390625,8.009733200073242,-3.5495412349700928,0.2614755928516388
2024-12-04 21:48:47.788992500,3.025992431640625,6.056686878204346,-2.3653886318206787,-0.3748288750648498
2024-12-04 21:48:47.799027500,3.03602734375,4.476754665374756,-1.06438946723938,-1.0318167209625244
2024-12-04 21:48:47.809062100,3.046062255859375,3.617154359817505,-0.5953062772750854,-1.6723741292953491
2024-12-04 21:48:47.819096300,3.056096435546875,3.2861430644989014,-0.1709720641374588,-1.8663787841796875
2024-12-04 21:48:47.829131300,3.06613134765625,3.455944061279297,-0.3681004643440246,-1.7109824419021606
2024-12-04 21:48:47.839166500,3.07616650390625,3.9354634284973145,-0.8857302665710449,-1.3206506967544556
2024-12-04 21:48:47.849200000,3.0862001953125,4.241350173950195,-1.0828264951705933,-0.9584577083587646
2024-12-04 21:48:47.859235300,3.0962353515625,4.219921588897705,-1.206524133682251,-0.8150709867477417
2024-12-04 21:48:47.869270300,3.106270263671875,4.084305763244629,-1.3081930875778198,-0.6301681995391846
2024-12-04 21:48:47.879304400,3.116304443359375,3.885807514190674,-1.293150782585144,-0.2204509824514389
2024-12-04 21:48:47.889339400,3.12633935546875,3.327681541442871,-1.1135616302490234,-0.1449284851551056
2024-12-04 21:48:47.899374300,3.136374267578125,2.62821626663208,-0.717677116394043,-0.1845632493495941
2024-12-04 21:48:47.909407700,3.14640771484375,1.9468814134597776,-0.4568917453289032,0.0125176012516021
2024-12-04 21:48:47.919443000,3.15644287109375,1.3715176582336426,-0.3529365658760071,0.5804542899131775
2024-12-04 21:48:47.929478000,3.166477783203125,0.9065549969673156,-0.6748563647270203,1.202683687210083
2024-12-04 21:48:47.939512000,3.176511962890625,0.5668099522590637,-1.1808644533157349,1.5785396099090576
2024-12-04 21:48:47.949546800,3.186546630859375,0.1372708082199096,-1.7831069231033323,1.688380002975464
2024-12-04 21:48:47.959582000,3.19658203125,-0.609184205532074,-2.1094648838043213,1.6334723234176636
2024-12-04 21:48:47.969616000,3.206615966796875,-1.6456236839294434,-2.384511232376098,1.5378170013427734
2024-12-04 21:48:47.979651000,3.216651123046875,-2.3561816215515137,-2.414503335952759,1.4262868165969849
2024-12-04 21:48:47.989686000,3.22668603515625,-2.396995782852173,-1.82563054561615,1.3741244077682495
2024-12-04 21:48:47.999720000,3.236719970703125,-2.283264398574829,-1.1282665729522705,1.3558753728866575
2024-12-04 21:48:48.009755000,3.2467548828125,-2.0781049728393555,-0.706317663192749,1.178975224494934
2024-12-04 21:48:48.019789800,3.256789794921875,-1.6903363466262815,-0.5954603552818298,0.8681414723396301
2024-12-04 21:48:48.029825000,3.266824951171875,-1.196149230003357,-0.5332443714141846,0.5313310623168945
2024-12-04 21:48:48.039859000,3.27685888671875,-0.9132399559020996,-0.0022702440619468,0.7531047463417053
2024-12-04 21:48:48.049894000,3.286893798828125,-0.8074337244033813,0.3475190103054046,0.9272276163101196
2024-12-04 21:48:48.059928800,3.2969287109375,-0.6762445569038391,0.6524014472961426,0.902621865272522
2024-12-04 21:48:48.069963000,3.306962890625,-0.4944822192192077,0.7157015800476074,0.5322654843330383
2024-12-04 21:48:48.079998000,3.316998046875,-0.2535998225212097,0.6021683812141418,-0.0881101414561271
2024-12-04 21:48:48.090033000,3.327032958984375,-0.0560336969792842,0.2880638241767883,-0.6389181017875671
2024-12-04 21:48:48.100066800,3.33706689453125,-0.1395994424819946,0.0496278405189514,-1.0408133268356323
2024-12-04 21:48:48.110102000,3.34710205078125,-0.3954061865806579,-0.1320038586854934,-1.360793113708496
2024-12-04 21:48:48.120137000,3.357136962890625,-0.534441351890564,0.0314884074032306,-1.6085504293441772
2024-12-04 21:48:48.130171000,3.3671708984375,-0.8743379712104797,1.3944469690322876,-2.3500564098358154
2024-12-04 21:48:48.140205800,3.377205810546875,-1.130484700202942,3.329882860183716,-3.1553099155426025
2024-12-04 21:48:48.150241000,3.387240966796875,-1.4220337867736816,3.174678087234497,-3.536829233169556
2024-12-04 21:48:48.160276000,3.39727587890625,-1.6285799741744995,2.939982652664185,-3.3248002529144287
2024-12-04 21:48:48.170310100,3.40731005859375,-1.89141047000885,2.940974235534668,-2.7489328384399414
2024-12-04 21:48:48.180344800,3.4173447265625,-2.03272557258606,3.359013795852661,-1.8838955163955688
2024-12-04 21:48:48.190379800,3.4273798828125,-1.887223482131958,3.6698155403137207,-1.0342438220977783
2024-12-04 21:48:48.200414000,3.4374140625,-1.6902434825897217,3.6912126541137695,-0.7436308860778809
2024-12-04 21:48:48.210449000,3.447448974609375,-1.6342763900756836,3.396723508834839,-1.057040095329285
2024-12-04 21:48:48.220484000,3.457484130859375,-1.589055061340332,2.9044947624206543,-1.552572250366211
2024-12-04 21:48:48.230517800,3.467517822265625,-1.3985737562179563,2.2663462162017822,-1.5736806392669678
2024-12-04 21:48:48.240553000,3.477552978515625,-1.1390897035598757,2.093512773513794,-1.3782541751861572
2024-12-04 21:48:48.250588000,3.487587890625,-0.8394525647163391,1.9351046085357664,-1.005959153175354
2024-12-04 21:48:48.260621800,3.497621826171875,-0.4248511493206024,1.444771647453308,-0.5680068731307983
2024-12-04 21:48:48.270656800,3.50765673828125,0.1021318733692169,0.7847630977630615,-0.1291583627462387
2024-12-04 21:48:48.280692000,3.51769189453125,0.7744876146316528,0.2305041551589965,0.3038423359394073
2024-12-04 21:48:48.290726000,3.527725830078125,1.5302059650421145,-0.2773085236549377,0.7805487513542175
2024-12-04 21:48:48.300761000,3.537760986328125,2.1962666511535645,-0.6996744275093079,1.1188246011734009
2024-12-04 21:48:48.310795800,3.547795654296875,2.3361620903015137,-1.483673095703125,1.1213858127593994
2024-12-04 21:48:48.320830700,3.557830810546875,2.0221126079559326,-2.140075922012329,1.1800775527954102
2024-12-04 21:48:48.330865000,3.567864990234375,1.793045997619629,-2.746387958526612,1.2969502210617063
2024-12-04 21:48:48.340899800,3.57789990234375,1.4481315612792969,-3.5235135555267334,1.3239699602127075
2024-12-04 21:48:48.350935000,3.58793505859375,1.5082865953445437,-3.3996036052703857,1.26490318775177
2024-12-04 21:48:48.360968700,3.59796875,1.664420485496521,-3.15354061126709,1.1140016317367554
2024-12-04 21:48:48.371004000,3.60800390625,1.9193906784057613,-3.081634044647217,0.9633951187133788
2024-12-04 21:48:48.381038800,3.618038818359375,2.3165395259857178,-3.072159767150879,0.651226818561554
2024-12-04 21:48:48.391073000,3.628072998046875,2.8157007694244385,-2.9943790435791016,0.2984961569309234
2024-12-04 21:48:48.401107700,3.638107666015625,3.3256123065948486,-2.9711718559265137,0.0291749406605958
2024-12-04 21:48:48.411143000,3.648142822265625,4.026131629943848,-3.044882774353028,-0.0531223379075527
2024-12-04 21:48:48.421176800,3.6581767578125,4.2096848487854,-2.802042961120605,0.2248435020446777
2024-12-04 21:48:48.431212000,3.6682119140625,4.090941429138184,-2.744455575942993,0.4732172787189483
2024-12-04 21:48:48.441247000,3.6782470703125,3.888421297073364,-2.0583345890045166,1.0007953643798828
2024-12-04 21:48:48.451281700,3.68828173828125,3.4375863075256348,-1.9410834312438965,1.2681690454483032
2024-12-04 21:48:48.461315800,3.69831591796875,2.847947597503662,-2.570930242538452,1.6407934427261353
2024-12-04 21:48:48.471350800,3.708350830078125,2.5683910846710205,-2.477723836898804,1.7671762704849243
2024-12-04 21:48:48.481386000,3.718385986328125,2.678987979888916,-1.8566932678222656,1.4764831066131592
2024-12-04 21:48:48.491420000,3.728419921875,2.4972097873687744,-1.179445743560791,1.0355058908462524
2024-12-04 21:48:48.501454800,3.738454833984375,2.418494939804077,-0.3798098564147949,0.2619553208351135
2024-12-04 21:48:48.511489800,3.74848974609375,2.3284006118774414,0.269164890050888,-0.2711640000343323
2024-12-04 21:48:48.521524000,3.75852392578125,2.4726333618164062,0.6596282124519348,-0.3311572968959808
2024-12-04 21:48:48.531559000,3.768558837890625,2.91485857963562,1.5267077684402466,-0.0826283544301986
2024-12-04 21:48:48.541593900,3.77859375,3.136651992797852,1.2223798036575315,-0.2286478728055954
2024-12-04 21:48:48.551628800,3.78862890625,3.462122678756714,1.171181082725525,-0.241867333650589
2024-12-04 21:48:48.561663000,3.7986630859375,3.820822238922119,0.1245212629437446,-0.7753019332885742
2024-12-04 21:48:48.571698000,3.808697998046875,2.875837564468384,-0.7530174851417542,-0.842415452003479
2024-12-04 21:48:48.581732900,3.81873291015625,2.1403393745422363,-0.9654434323310852,-0.8088663220405579
2024-12-04 21:48:48.591766800,3.828766845703125,1.6715168952941897,-0.2274656891822815,-0.3894211947917938
2024-12-04 21:48:48.601802000,3.838802001953125,1.3044891357421875,-0.0190536268055439,-0.2747713029384613
2024-12-04 21:48:48.611837000,3.8488369140625,1.138272047042847,0.0855310931801796,-0.3876047134399414
2024-12-04 21:48:48.621871000,3.85887109375,0.9958546161651612,0.3618380725383758,-0.3252273499965668
2024-12-04 21:48:48.631905800,3.86890576171875,0.8314989805221558,0.5400307178497314,-0.2427746951580047
2024-12-04 21:48:48.641940700,3.878940673828125,0.6826860904693604,0.6639624834060669,-0.1938287168741226
2024-12-04 21:48:48.651976000,3.888975830078125,0.5404891967773438,0.7057114839553833,-0.1305185109376907
2024-12-04 21:48:48.662009900,3.899009765625,0.5113904476165771,0.7047730088233948,-0.0925349220633506
2024-12-04 21:48:48.672045000,3.909045166015625,0.4538765847682953,0.5417275428771973,-0.0345176085829734
2024-12-04 21:48:48.682079700,3.919079833984375,0.370508998632431,0.4585820734500885,-0.0194257404655218
2024-12-04 21:48:48.692114000,3.929114013671875,0.2844382524490356,0.4577850997447967,0.0351170375943183
2024-12-04 21:48:48.702148900,3.93914892578125,0.1687981784343719,0.5067752599716187,0.0480943545699119
2024-12-04 21:48:48.712184000,3.94918408203125,-0.0182247702032327,0.4925267100334167,0.1456089615821838
2024-12-04 21:48:48.722217700,3.9592177734375,-0.2070396840572357,0.5342789888381958,0.1936052441596985
2024-12-04 21:48:48.732253000,3.9692529296875,-0.373428076505661,0.657798171043396,0.1764550060033798
2024-12-04 21:48:48.742288000,3.979287841796875,-0.5061179995536804,0.7346066832542419,0.1835280954837799
2024-12-04 21:48:48.752322800,3.98932275390625,-0.5611350536346436,0.7946351170539856,0.1984410732984542
2024-12-04 21:48:48.762357000,3.99935693359375,-0.5412406921386719,0.8739251494407654,0.1978485286235809
2024-12-04 21:48:48.772391700,4.0093916015625,-0.518779456615448,0.8313004374504089,0.2922183573246002
2024-12-04 21:48:48.782427000,4.019427001953125,-0.3831803202629089,0.569028377532959,0.4652050733566284
2024-12-04 21:48:48.792460800,4.029460693359375,-0.1442534327507019,0.4709256291389465,0.5337281227111816
2024-12-04 21:48:48.802496000,4.03949609375,-0.0191767439246177,0.3451237678527832,0.3891262114048004
2024-12-04 21:48:48.812531000,4.049531005859375,-0.4082876145839691,0.5804691314697266,-0.0814795494079589
2024-12-04 21:48:48.822564900,4.05956494140625,-0.9611198902130128,0.7745222449302673,-0.5230492353439331
2024-12-04 21:48:48.832599800,4.069599853515625,-1.07599937915802,0.0564727857708931,-0.5272377133369446
2024-12-04 21:48:48.842635000,4.079635009765625,-1.0050990581512451,-0.1968843787908554,-0.4840095639228821
2024-12-04 21:48:48.852670000,4.089669921875,-0.93524968624115,-0.2026612013578415,-0.2775034010410309
2024-12-04 21:48:48.862703900,4.099703857421875,-0.9309276342391968,-0.0977978929877281,-0.0216380693018436
2024-12-04 21:48:48.872738800,4.10973876953125,-0.8841171860694885,-0.0597620569169521,0.1993296891450882
2024-12-04 21:48:48.882773800,4.119773681640625,-0.8741884231567383,-0.0574893169105052,0.3064401745796203
2024-12-04 21:48:48.892808000,4.129807861328125,-0.9295833110809326,0.011907260864973,0.2865942120552063
2024-12-04 21:48:48.902843000,4.1398427734375,-1.0714013576507568,0.3207958340644836,0.1869927793741226
2024-12-04 21:48:48.912877800,4.1498779296875,-1.2213990688323977,0.4593459963798523,0.0723355337977409
2024-12-04 21:48:48.922911700,4.159911865234375,-1.3223956823349,0.4744232296943664,0.0476376488804817
2024-12-04 21:48:48.932946700,4.16994677734375,-1.2857987880706787,0.4247201383113861,0.0014324106741696
2024-12-04 21:48:48.942981600,4.179981689453125,-1.103527307510376,0.361177384853363,-0.1245454996824264
2024-12-04 21:48:48.953016800,4.190016845703125,-0.7910650968551636,0.4633289575576782,-0.3891451060771942
2024-12-04 21:48:48.963050800,4.20005078125,-0.4681240618228912,0.6775368452072144,-0.5469427108764648
2024-12-04 21:48:48.973085700,4.210085693359375,-0.1694336682558059,0.6926988363265991,-0.5764510035514832
2024-12-04 21:48:48.983120600,4.22012060546875,-0.0051440550014376,0.3082009255886078,-0.4993525147438049
2024-12-04 21:48:48.993154800,4.23015478515625,0.1403510421514511,0.0149504523724317,-0.423450231552124
2024-12-04 21:48:49.003189800,4.240189697265625,0.2686789333820343,0.1016754880547523,-0.3947797119617462
2024-12-04 21:48:49.013225000,4.250224853515625,0.2913261950016022,0.3423799276351928,-0.3268164992332458
2024-12-04 21:48:49.023259600,4.260259765625,0.2368426918983459,0.4484568536281585,-0.2387689501047134
2024-12-04 21:48:49.033293800,4.2702939453125,0.1886066794395446,0.4043157696723938,-0.1759044528007507
2024-12-04 21:48:49.043328800,4.280328857421875,0.1080394089221954,0.4393786787986755,-0.0752510949969291
2024-12-04 21:48:49.053363700,4.29036376953125,0.0460514947772026,0.7351539134979248,0.0676170587539672
2024-12-04 21:48:49.063397600,4.300397705078125,6.5361149609e-05,0.8958250880241394,0.0773277431726455
2024-12-04 21:48:49.073432600,4.3104326171875,-0.0308828074485063,0.6308881044387817,0.0089748464524745
2024-12-04 21:48:49.083467800,4.3204677734375,-0.0650839209556579,0.2809530198574066,-0.0528099574148654
2024-12-04 21:48:49.093501700,4.330501708984375,-0.1175705716013908,0.1318977326154709,-0.0803210735321044
2024-12-04 21:48:49.103537000,4.340536865234375,-0.1372220367193222,0.1446665227413177,-0.0390069223940372
2024-12-04 21:48:49.113571600,4.350571533203125,-0.1533378809690475,0.2868655622005462,0.0384457856416702
2024-12-04 21:48:49.123606800,4.360606689453125,-0.1803769469261169,0.4101017415523529,0.0895158946514129
2024-12-04 21:48:49.133640700,4.370640625,-0.1803143471479416,0.5219172835350037,0.0781566947698593
2024-12-04 21:48:49.143676000,4.380676025390625,-0.1708143204450607,0.6306999325752258,0.042072732001543
2024-12-04 21:48:49.153710800,4.3907109375,-0.173556849360466,0.6429406404495239,0.0258823111653327
2024-12-04 21:48:49.163744800,4.400744873046875,-0.1986446231603622,0.6436690092086792,0.0275784768164157
2024-12-04 21:48:49.173779700,4.41077978515625,-0.2075952738523483,0.6471797227859497,0.0124627891927957
2024-12-04 21:48:49.183814700,4.420814697265625,-0.1945244669914245,0.5899009704589844,-0.03400244936347
2024-12-04 21:48:49.193849900,4.430849853515625,-0.1412750482559204,0.462959349155426,-0.0686065331101417
2024-12-04 21:48:49.203883500,4.440883544921875,-0.1004130989313125,0.2050236761569976,-0.0807377621531486
2024-12-04 21:48:49.213918700,4.450918701171875,-0.0734312981367111,-0.0298613794147968,-0.0449551194906234
2024-12-04 21:48:49.223953700,4.46095361328125,-0.0670658126473426,-0.1091066673398017,0.0074337869882583
2024-12-04 21:48:49.233987800,4.47098779296875,-0.0976805090904235,-0.1529234647750854,0.0334573052823543
2024-12-04 21:48:49.244022800,4.481022705078125,-0.1243307590484619,-0.2287508398294448,0.0315134637057781
2024-12-04 21:48:49.254057700,4.4910576171875,-0.1422510594129562,-0.2769140303134918,0.0270066559314727
2024-12-04 21:48:49.264091600,4.501091552734375,-0.1645758002996444,-0.2607651352882385,0.0219538416713476
2024-12-04 21:48:49.274126800,4.511126953125,-0.1807310134172439,-0.1802510321140289,0.0175433959811925
2024-12-04 21:48:49.284161800,4.521161865234375,-0.1816370189189911,-0.0544571503996849,0.0072105973958969
2024-12-04 21:48:49.294196700,4.53119677734375,-0.1556610316038131,0.0765213742852211,-0.0200824439525604
2024-12-04 21:48:49.304230700,4.541230712890625,-0.1037666872143745,0.1913837790489196,-0.074875921010971
2024-12-04 21:48:49.314265600,4.551265625,-0.0472336150705814,0.2550970911979675,-0.1321782320737838
2024-12-04 21:48:49.324300800,4.56130078125,0.0112824225798249,0.2506554722785949,-0.1587757617235183
2024-12-04 21:48:49.334335000,4.5713349609375,0.0664422214031219,0.2000807374715805,-0.1423276364803314
2024-12-04 21:48:49.344369700,4.58136962890625,0.1070498377084732,0.1117527410387992,-0.0947209745645523
2024-12-04 21:48:49.354404600,4.591404541015625,0.1497963517904281,-0.0205188915133476,-0.0382886119186878
2024-12-04 21:48:49.364439800,4.601439697265625,0.1475792676210403,-0.1402444839477539,-0.0101864039897918
2024-12-04 21:48:49.374473700,4.6114736328125,0.1417414546012878,-0.1942802369594574,0.0005916021764278
2024-12-04 21:48:49.384509000,4.621509033203125,0.1789263784885406,-0.2429497689008712,-0.0031520030461251
2024-12-04 21:48:49.394543600,4.631543701171875,0.2760473191738128,-0.4177485108375549,-0.0454303473234176
2024-12-04 21:48:49.404577800,4.641577880859375,0.3781116306781769,-0.5629355311393738,-0.0543897524476051
2024-12-04 21:48:49.414612700,4.65161279296875,0.4581384658813476,-0.6599665880203247,-0.023974111303687
2024-12-04 21:48:49.424648000,4.66164794921875,0.5213799476623535,-0.6819072961807251,0.0229332093149423
2024-12-04 21:48:49.434683000,4.671682861328125,0.569254457950592,-0.6371281147003174,0.0281217545270919
2024-12-04 21:48:49.444716800,4.681716796875,0.5932282209396362,-0.5120927095413208,-0.0208463203161954
2024-12-04 21:48:49.454751700,4.691751708984375,0.6047362089157104,-0.3712949454784393,-0.118486687541008
2024-12-04 21:48:49.464786700,4.70178662109375,0.5721971988677979,-0.2303410172462463,-0.1945958286523819
2024-12-04 21:48:49.474820900,4.71182080078125,0.5197284817695618,-0.1694998145103454,-0.2266152054071426
2024-12-04 21:48:49.484855600,4.72185546875,0.4588605761528015,-0.1245989203453064,-0.1795875132083892
2024-12-04 21:48:49.494890800,4.731890869140625,0.4126274585723877,-0.1196011900901794,-0.1271628439426422
2024-12-04 21:48:49.504925700,4.74192578125,0.444279134273529,-0.0790031626820564,-0.0858454853296279
2024-12-04 21:48:49.514960000,4.7519599609375,0.50449138879776,-0.1024225875735282,-0.0631558075547218
2024-12-04 21:48:49.524994800,4.761994873046875,0.6302391886711121,-0.1190359145402908,0.003066623583436
2024-12-04 21:48:49.535029800,4.77202978515625,1.043217658996582,-0.3969693481922149,-0.0211564153432846
2024-12-04 21:48:49.545063700,4.782063720703125,1.1091588735580444,-0.6083217859268188,-0.0858629718422889
2024-12-04 21:48:49.555099000,4.792098876953125,1.01853609085083,-0.6358022689819336,-0.1563158482313156
2024-12-04 21:48:49.565133800,4.8021337890625,0.9676771759986876,-0.5897010564804077,-0.2336857318878173
2024-12-04 21:48:49.575168800,4.812168701171875,0.914538025856018,-0.5480663180351257,-0.2663444876670837
2024-12-04 21:48:49.585202700,4.82220263671875,0.8438833355903625,-0.4441364705562591,-0.2023503184318542
2024-12-04 21:48:49.595237600,4.832237548828125,0.7929723858833313,-0.4068597257137298,-0.1100531071424484
2024-12-04 21:48:49.605272800,4.84227294921875,0.749207615852356,-0.3777590990066528,-0.0236532390117645
2024-12-04 21:48:49.615306800,4.852306640625,0.7671866416931152,-0.4010674953460693,0.0092712743207812
2024-12-04 21:48:49.625341700,4.862341796875,0.7647437453269958,-0.4674755334854126,0.0226350165903568
2024-12-04 21:48:49.635376600,4.872376708984375,0.7685339450836182,-0.5881271958351135,0.0083654047921299
2024-12-04 21:48:49.645411800,4.882411865234375,0.7859970927238464,-0.6322110295295715,0.0131215443834662
2024-12-04 21:48:49.655445800,4.89244580078125,0.847258985042572,-0.6531073451042175,0.0009267502464354
2024-12-04 21:48:49.665481000,4.90248095703125,0.8866804242134094,-0.6038191914558411,0.0204458571970462
2024-12-04 21:48:49.675515600,4.912515625,0.8820639252662659,-0.5020338296890259,0.0255932938307523
2024-12-04 21:48:49.685549800,4.9225498046875,0.9058414101600648,-0.4240708351135254,0.0343383140861988
2024-12-04 21:48:49.695584800,4.932584716796875,0.9089590907096864,-0.380182147026062,0.0492795072495937
2024-12-04 21:48:49.705619700,4.94261962890625,0.944932222366333,-0.3742092251777649,0.0446706414222717
2024-12-04 21:48:49.715655000,4.952655029296875,0.968971848487854,-0.3734709918498993,0.0444342531263828
2024-12-04 21:48:49.725688600,4.9626884765625,0.9158141016960144,-0.3260946869850158,0.0607469119131565
2024-12-04 21:48:49.735723800,4.972723876953125,0.8496813178062439,-0.2854170799255371,0.0554648786783218
2024-12-04 21:48:49.745758700,4.9827587890625,0.803579568862915,-0.2731737494468689,0.0365140922367572
2024-12-04 21:48:49.755792600,4.992792724609375,0.779552161693573,-0.2482885271310806,0.0370120480656623
2024-12-04 21:48:49.765827600,5.00282763671875,0.7215610146522522,-0.1841369718313217,0.0535332337021827
2024-12-04 21:48:49.775862800,5.01286279296875,0.6936479210853577,-0.0766997188329696,0.0734821036458015
2024-12-04 21:48:49.785897700,5.022897705078125,0.7703909277915955,0.0196209568530321,0.0999797582626342
2024-12-04 21:48:49.795932000,5.032931884765625,0.9377798438072203,0.1439050883054733,0.1692164242267608
2024-12-04 21:48:49.805966800,5.042966796875,0.941172182559967,0.19448783993721,0.2283351421356201
2024-12-04 21:48:49.816001500,5.05300146484375,0.9130178689956664,0.1467886865139007,0.2438389360904693
2024-12-04 21:48:49.826035700,5.06303564453125,0.9104346036911012,0.092100940644741,0.2356505095958709
2024-12-04 21:48:49.836070700,5.073070556640625,0.8998473882675171,0.0831370055675506,0.2383617758750915
2024-12-04 21:48:49.846105900,5.08310595703125,0.9258052110671996,0.0876079201698303,0.2269504070281982
2024-12-04 21:48:49.856140800,5.093140869140625,0.9665520787239076,0.1447489857673645,0.2186922878026962
2024-12-04 21:48:49.866174700,5.1031748046875,0.9413071274757384,0.1653370857238769,0.2369101643562317
2024-12-04 21:48:49.876209700,5.113209716796875,0.9227162003517152,0.1014490202069282,0.2478294372558593
2024-12-04 21:48:49.886244900,5.123244873046875,0.9206234812736512,0.0361877232789993,0.2469279617071151
2024-12-04 21:48:49.896278500,5.133278564453125,0.911965787410736,0.0091142952442169,0.269733190536499
2024-12-04 21:48:49.906314500,5.143314453125,0.931172788143158,0.0983333811163902,0.3614375591278076
2024-12-04 21:48:49.916349400,5.153349365234375,1.0170937776565552,0.3294420838356018,0.5076044201850891
2024-12-04 21:48:49.926384400,5.16338427734375,1.149804949760437,0.5987417697906494,0.7333091497421265
2024-12-04 21:48:49.936418300,5.173418212890625,1.2958120107650757,0.9008724689483644,1.0448261499404907
2024-12-04 21:48:49.946453200,5.183453369140625,1.3067387342453003,0.8939805030822754,1.0886015892028809
2024-12-04 21:48:49.956488400,5.193488525390625,1.1777719259262085,0.3043132126331329,0.6205248832702637
2024-12-04 21:48:49.966523400,5.2035234375,1.1391806602478027,-0.0195785630494356,0.2438245117664337
2024-12-04 21:48:49.976557600,5.2135576171875,1.1793649196624756,-0.1086775436997413,0.0726488381624221
2024-12-04 21:48:49.986592300,5.22359228515625,1.1679620742797852,-0.3064265549182892,-0.0222198776900768
2024-12-04 21:48:49.996627500,5.23362744140625,1.1441670656204224,-0.4435519576072693,-0.038495235145092
2024-12-04 21:48:50.006661400,5.243661376953125,1.1503254175186155,-0.3748144209384918,0.0265570022165775
2024-12-04 21:48:50.016696600,5.253696533203125,1.1508451700210571,-0.2614472210407257,0.1039995551109314
2024-12-04 21:48:50.026731500,5.2637314453125,1.1349633932113647,-0.2040966004133224,0.1119850426912307
2024-12-04 21:48:50.036766200,5.27376611328125,1.093824863433838,-0.3057638704776764,0.0532940253615379
2024-12-04 21:48:50.046800400,5.28380029296875,1.0615659952163696,-0.4677565097808838,-0.0380289666354656
2024-12-04 21:48:50.056835300,5.29383544921875,1.0387802124023438,-0.6014848947525024,-0.1462528854608535
2024-12-04 21:48:50.066870500,5.30387060546875,0.9857314229011536,-0.7635281085968018,-0.2492719441652298
2024-12-04 21:48:50.076905500,5.313905517578125,0.8475094437599182,-0.8743749856948853,-0.3416261970996856
2024-12-04 21:48:50.086939400,5.323939453125,0.6444916129112244,-0.9307271838188172,-0.4201284348964691
2024-12-04 21:48:50.096974300,5.333974365234375,0.4413617849349975,-0.9739478826522828,-0.4873869717121124
2024-12-04 21:48:50.107009500,5.344009521484375,0.1650300621986389,-0.936122715473175,-0.518303394317627
2024-12-04 21:48:50.117043500,5.35404345703125,-0.1192272305488586,-0.7044064402580261,-0.4902480244636535
2024-12-04 21:48:50.127078400,5.364078369140625,-0.381494790315628,-0.3629129827022552,-0.408852756023407
2024-12-04 21:48:50.137113300,5.37411328125,-0.5470663905143738,-0.0733160600066185,-0.2795785665512085
2024-12-04 21:48:50.147148300,5.384148193359375,-0.6806958317756653,0.1988781839609146,-0.1941992193460464
2024-12-04 21:48:50.157182500,5.394182373046875,-0.7995939254760742,0.4101505875587463,-0.158069223165512
2024-12-04 21:48:50.167217400,5.404217529296875,-0.9100759625434875,0.5795145630836487,-0.1618229448795318
2024-12-04 21:48:50.177252400,5.41425244140625,-1.0277748107910156,0.7198565006256104,-0.1854405552148819
2024-12-04 21:48:50.187286300,5.424286376953125,-1.0850887298583984,0.8735787272453308,-0.1836501210927963
2024-12-04 21:48:50.197321500,5.434321533203125,-1.0342819690704346,0.8957202434539795,-0.2131506204605102
2024-12-04 21:48:50.207356400,5.4443564453125,-0.8845968246459961,0.6436589360237122,-0.3125118017196655
2024-12-04 21:48:50.217391600,5.4543916015625,-0.7909038662910461,0.2480353266000747,-0.4934765696525574
2024-12-04 21:48:50.227425300,5.46442529296875,-0.6792348623275757,-0.019131913781166,-0.6576905846595764
2024-12-04 21:48:50.237460500,5.47446044921875,-0.5680780410766602,-0.0861341506242752,-0.63495934009552
2024-12-04 21:48:50.247495400,5.484495361328125,-0.5242472290992737,-0.0433861576020717,-0.4590924382209778
2024-12-04 21:48:50.257530400,5.4945302734375,-0.5397258400917053,0.0833645612001419,-0.2274642288684845
2024-12-04 21:48:50.267564300,5.504564208984375,-0.5591030120849609,0.2978771030902862,0.0030027935281395
2024-12-04 21:48:50.277599200,5.51459912109375,-0.5391987562179565,0.4711324572563171,0.1881778091192245
2024-12-04 21:48:50.287634400,5.524634521484375,-0.4172107875347137,0.5707141757011414,0.3329398036003113
2024-12-04 21:48:50.297668400,5.53466845703125,-0.195812851190567,0.7849054932594299,0.6127644777297974
2024-12-04 21:48:50.307703600,5.54470361328125,-0.1533562093973159,1.2005829811096191,0.8781261444091797
2024-12-04 21:48:50.317738200,5.55473828125,-0.3083021342754364,1.2847799062728882,0.937648594379425
2024-12-04 21:48:50.327773400,5.5647734375,-0.5737519264221191,0.8024296760559082,0.6656186580657959
2024-12-04 21:48:50.337807400,5.574807373046875,-0.6376807689666748,0.1612704396247863,0.3463863134384155
2024-12-04 21:48:50.347842600,5.584842529296875,-0.517510175704956,-0.4497428834438324,0.1398821622133255
2024-12-04 21:48:50.357877500,5.59487744140625,-0.3314980268478393,-0.938219964504242,0.0459265448153018
2024-12-04 21:48:50.367912200,5.604912109375,-0.2081430852413177,-1.1007952690124512,0.1111865118145942
2024-12-04 21:48:50.377946400,5.6149462890625,-0.1019452512264251,-0.7720860242843628,0.1825761198997497
2024-12-04 21:48:50.387981300,5.624981201171875,-0.0283447969704866,-0.3056564927101135,0.2245712280273437
2024-12-04 21:48:50.398016500,5.6350166015625,-0.0416616313159465,-0.0014591002836823,0.2304240465164184
2024-12-04 21:48:50.408050200,5.64505029296875,-0.0953650698065757,0.0984768196940422,0.2030454128980636
2024-12-04 21:48:50.418085400,5.65508544921875,-0.1088588088750839,-0.0147282239049673,0.1458640396595001
2024-12-04 21:48:50.428120300,5.665120361328125,-0.1188515201210975,-0.0746240466833114,0.1115089952945709
2024-12-04 21:48:50.438155500,5.675155517578125,-0.1102471500635147,-0.0169114451855421,0.1197922602295875
2024-12-04 21:48:50.448189400,5.685189453125,-0.1091014593839645,0.0353525578975677,0.1422901153564453
2024-12-04 21:48:50.458224400,5.695224365234375,-0.1365194469690323,0.0218354556709527,0.1397009342908859
2024-12-04 21:48:50.468259300,5.70525927734375,-0.1878374963998794,-0.0202459525316953,0.1015069484710693
2024-12-04 21:48:50.478294300,5.715294189453125,-0.2281857430934906,-0.0705598294734954,0.0236642360687255
2024-12-04 21:48:50.488328400,5.725328369140625,-0.2230144143104553,-0.1319385170936584,-0.0559243336319923
2024-12-04 21:48:50.498363400,5.73536328125,-0.1836502850055694,-0.13308747112751,-0.1198996677994728
2024-12-04 21:48:50.508398300,5.7453984375,-0.1320760399103164,-0.084669604897499,-0.1565413177013397
2024-12-04 21:48:50.518433300,5.755433349609375,-0.0961909070611,-0.046291783452034,-0.1782701313495636
2024-12-04 21:48:50.528467500,5.765467529296875,-0.0747995972633361,-0.0673741623759269,-0.1996119022369384
2024-12-04 21:48:50.538502400,5.77550244140625,-0.0662067234516143,-0.1208615452051162,-0.2104303836822509
2024-12-04 21:48:50.548537600,5.78553759765625,-0.0767690911889076,-0.1700338721275329,-0.2080569714307785
2024-12-04 21:48:50.558571300,5.7955712890625,-0.0849157571792602,-0.1764577627182006,-0.1897867023944854
2024-12-04 21:48:50.568606500,5.8056064453125,-0.1199352592229843,-0.1754249930381775,-0.1510126888751983
2024-12-04 21:48:50.578641400,5.815641357421875,-0.1600710153579712,-0.1331409960985183,-0.1050154417753219
2024-12-04 21:48:50.588676400,5.82567626953125,-0.1908318549394607,-0.060755219310522,-0.0658483356237411
2024-12-04 21:48:50.598710300,5.835710205078125,-0.2227816879749298,-0.0115476101636886,-0.0459779277443885
2024-12-04 21:48:50.608745200,5.8457451171875,-0.2288856655359268,-0.0008824488613754,-0.0287952106446027
2024-12-04 21:48:50.618780400,5.855780517578125,-0.2085335850715637,0.001799430232495,-0.0225899722427129
2024-12-04 21:48:50.628815400,5.8658154296875,-0.1755817681550979,0.0056663402356207,-0.0141394957900047
2024-12-04 21:48:50.638849500,5.875849609375,-0.1359607428312301,0.0224049538373947,0.0003979327157139
2024-12-04 21:48:50.648884200,5.88588427734375,-0.0987172350287437,0.0438356772065162,0.0358659103512764
2024-12-04 21:48:50.658919400,5.89591943359375,-0.0757427662611007,0.1006558164954185,0.0879419818520546
2024-12-04 21:48:50.668954400,5.905954345703125,-0.0822765678167343,0.1943250447511673,0.1558315455913543
2024-12-04 21:48:50.678988500,5.915988525390625,-0.1275929510593414,0.3376617729663849,0.2008838802576065
2024-12-04 21:48:50.689023500,5.9260234375,-0.2026245892047882,0.5153593420982361,0.1976582556962967
2024-12-04 21:48:50.699058200,5.93605810546875,-0.2927371561527252,0.6494764089584351,0.1542205065488815
2024-12-04 21:48:50.709093400,5.94609326171875,-0.3865097165107727,0.6714858412742615,0.0705623477697372
2024-12-04 21:48:50.719127300,5.956127197265625,-0.4714104831218719,0.5938257575035095,-0.0323954671621322
2024-12-04 21:48:50.729162500,5.96616259765625,-0.5525660514831543,0.4902410209178924,-0.1274261027574539
2024-12-04 21:48:50.739197400,5.976197509765625,-0.6213812232017517,0.4370872974395752,-0.1685948073863983
2024-12-04 21:48:50.749232400,5.986232421875,-0.6917251944541931,0.4475066363811493,-0.1560760736465454
2024-12-04 21:48:50.759266300,5.996266357421875,-0.7397747039794922,0.4983269274234772,-0.1151800453662872
2024-12-04 21:48:50.769301500,6.006301513671875,-0.7703105211257935,0.5240362882614136,-0.0847398489713668
2024-12-04 21:48:50.779336400,6.01633642578125,-0.77659672498703,0.490103930234909,-0.0855153277516365
2024-12-04 21:48:50.789370400,6.026370361328125,-0.7587114572525024,0.4236604571342468,-0.1279261708259582
2024-12-04 21:48:50.799405300,6.0364052734375,-0.7188313603401184,0.3573450446128845,-0.1821100711822509
2024-12-04 21:48:50.809440300,6.046440185546875,-0.6603797674179077,0.3086837828159332,-0.2154901325702667
2024-12-04 21:48:50.819475500,6.056475341796875,-0.5888504385948181,0.2753980159759521,-0.2237021476030349
2024-12-04 21:48:50.829509400,6.06650927734375,-0.5026364922523499,0.2661688327789306,-0.2153589874505996
2024-12-04 21:48:50.839544300,6.07654443359375,-0.4172218441963196,0.2795256078243255,-0.2037898153066635
2024-12-04 21:48:50.849579300,6.086579345703125,-0.3444568216800689,0.303659975528717,-0.1980941146612167
2024-12-04 21:48:50.859614500,6.096614501953125,-0.303251564502716,0.3092626333236694,-0.2059880048036575
2024-12-04 21:48:50.869648400,6.1066484375,-0.2763861417770386,0.3083630204200744,-0.2375440746545791
2024-12-04 21:48:50.879683600,6.11668359375,-0.2705840766429901,0.3107135593891144,-0.2864918708801269
2024-12-04 21:48:50.889718300,6.12671826171875,-0.2836381196975708,0.3103188574314117,-0.3383441567420959
2024-12-04 21:48:50.899752400,6.13675244140625,-0.2932559251785278,0.3150222599506378,-0.3868824541568756
2024-12-04 21:48:50.909787400,6.146787353515625,-0.2856802940368652,0.3277904987335205,-0.4258064031600952
2024-12-04 21:48:50.919822300,6.156822265625,-0.2820474803447723,0.3399237096309662,-0.4535726606845855
2024-12-04 21:48:50.929857300,6.166857177734375,-0.2806786298751831,0.3572523891925812,-0.4792268872261047
2024-12-04 21:48:50.939891500,6.176891357421875,-0.2674930393695831,0.3730534017086029,-0.5044016242027283
2024-12-04 21:48:50.949926400,6.186926513671875,-0.2532382011413574,0.3822530508041382,-0.5243508219718933
2024-12-04 21:48:50.959961300,6.19696142578125,-0.243518978357315,0.3765729367733001,-0.5474066138267517
2024-12-04 21:48:50.969996500,6.20699658203125,-0.2642170488834381,0.3763369619846344,-0.5825363993644714
2024-12-04 21:48:50.980030200,6.2170302734375,-0.3022443652153015,0.3658077418804168,-0.6445336937904358
2024-12-04 21:48:50.990065400,6.2270654296875,-0.3381613492965698,0.3329286277294159,-0.7084304094314575
2024-12-04 21:48:51.000100400,6.237100341796875,-0.3675695955753326,0.2984128594398498,-0.7892993688583374
2024-12-04 21:48:51.010135300,6.24713525390625,-0.3993131518363952,0.2613269984722137,-0.8484766483306885
2024-12-04 21:48:51.020169200,6.257169189453125,-0.4247644245624542,0.238637238740921,-0.8914565443992615
2024-12-04 21:48:51.030204400,6.267204345703125,-0.4753935039043426,0.2363301366567611,-0.9361651539802552
2024-12-04 21:48:51.040239400,6.2772392578125,-0.5278894901275635,0.2436700314283371,-0.987846851348877
2024-12-04 21:48:51.050274300,6.2872744140625,-0.6056063771247864,0.2075602412223816,-1.049724578857422
2024-12-04 21:48:51.060308500,6.29730859375,-0.683398425579071,0.1822550445795059,-1.124691367149353
2024-12-04 21:48:51.070343200,6.30734326171875,-0.7528709769248962,0.1532692015171051,-1.192608118057251
2024-12-04 21:48:51.080378400,6.31737841796875,-0.7803744673728943,0.1513910442590713,-1.2311431169509888
2024-12-04 21:48:51.090413300,6.327413330078125,-0.7819092273712158,0.1834698915481567,-1.2472316026687622
2024-12-04 21:48:51.100447500,6.337447509765625,-0.7969922423362732,0.2044489085674286,-1.2384427785873413
2024-12-04 21:48:51.110482400,6.347482421875,-0.7911649942398071,0.1920431107282638,-1.2578413486480713
2024-12-04 21:48:51.120517400,6.357517333984375,-0.7834341526031494,0.1526941359043121,-1.3051193952560425
2024-12-04 21:48:51.130552300,6.36755224609375,-0.7689119577407837,0.0447447635233402,-1.3421120643615725
2024-12-04 21:48:51.140586500,6.37758642578125,-0.7916103601455688,-0.0602397061884403,-1.3610659837722778
2024-12-04 21:48:51.150621400,6.387621337890625,-0.9084005951881408,-0.0688726082444191,-1.3714566230773926
2024-12-04 21:48:51.160656400,6.397656494140625,-1.0037553310394287,0.0598597265779972,-1.4023886919021606
2024-12-04 21:48:51.170691300,6.40769140625,-1.0628706216812134,0.2115573734045028,-1.4500523805618286
2024-12-04 21:48:51.180725200,6.417725341796875,-1.1094073057174685,0.2197909951210022,-1.493005633354187
2024-12-04 21:48:51.190760400,6.427760498046875,-1.1092395782470703,0.1246586292982101,-1.541048884391785
2024-12-04 21:48:51.200795400,6.43779541015625,-1.1156014204025269,0.0579894669353961,-1.575110673904419
2024-12-04 21:48:51.210830300,6.447830322265625,-1.1289271116256714,0.0931080356240272,-1.5778063535690308
2024-12-04 21:48:51.220864300,6.4578642578125,-1.2117338180541992,0.1493860036134719,-1.5435395240783691
2024-12-04 21:48:51.230899500,6.4678994140625,-1.277564525604248,0.1340299397706985,-1.5104657411575315
2024-12-04 21:48:51.240934400,6.477934326171875,-1.247389316558838,0.0850830525159835,-1.4669593572616575
2024-12-04 21:48:51.250968600,6.487968505859375,-1.1243419647216797,-0.0076775047928094,-1.422836422920227
2024-12-04 21:48:51.261003300,6.498003173828125,-1.015766143798828,-0.1536674350500106,-1.4115972518920898
2024-12-04 21:48:51.271038200,6.5080380859375,-0.9562535285949708,-0.2633694410324096,-1.4044520854949951
2024-12-04 21:48:51.281073400,6.518073486328125,-0.9427748918533324,-0.3373322188854217,-1.356960654258728
2024-12-04 21:48:51.291107300,6.528107421875,-1.0277167558670044,-0.2648883759975433,-1.3326375484466553
2024-12-04 21:48:51.301142500,6.538142578125,-1.1153607368469238,-0.1926346868276596,-1.2826762199401855
2024-12-04 21:48:51.311177200,6.54817724609375,-1.156063675880432,-0.2623639702796936,-1.221509337425232
2024-12-04 21:48:51.321212400,6.55821240234375,-1.2682517766952517,-0.4967307448387146,-1.228848576545715
2024-12-04 21:48:51.331246300,6.568246337890625,-1.338083267211914,-0.5846912264823914,-1.225963115692139
2024-12-04 21:48:51.341281500,6.578281494140625,-1.3523541688919067,-0.5545753836631775,-1.1852816343307495
2024-12-04 21:48:51.351316500,6.58831640625,-1.352113962173462,-0.613856315612793,-1.1620359420776367
2024-12-04 21:48:51.361351200,6.59835107421875,-1.3245620727539062,-0.698052167892456,-1.1099393367767334
2024-12-04 21:48:51.371385300,6.60838525390625,-1.2963831424713137,-0.7878747582435608,-1.063368320465088
2024-12-04 21:48:51.381420300,6.618420166015625,-1.263566255569458,-0.8634077906608582,-1.0427265167236328
2024-12-04 21:48:51.391455500,6.62845556640625,-1.2271294593811035,-0.8067740797996521,-1.0010558366775513
2024-12-04 21:48:51.401490400,6.638490478515625,-1.1837317943572998,-0.676369309425354,-1.0059430599212646
2024-12-04 21:48:51.411524400,6.6485244140625,-1.1197879314422607,-0.5538569688796997,-1.0040793418884275
2024-12-04 21:48:51.421559300,6.658559326171875,-1.03391695022583,-0.4937668740749359,-0.9921539425849916
2024-12-04 21:48:51.431594500,6.668594482421875,-0.9333078861236572,-0.4644566476345062,-0.9535164833068848
2024-12-04 21:48:51.441629400,6.67862939453125,-0.8378421068191528,-0.3533312976360321,-0.914112150669098
2024-12-04 21:48:51.451663400,6.688663330078125,-0.7711243629455566,-0.2746092975139618,-0.8913533091545105
2024-12-04 21:48:51.461698300,6.6986982421875,-0.7073368430137634,-0.2299352288246154,-0.8577028512954712
2024-12-04 21:48:51.471733200,6.708733154296875,-0.6577458381652832,-0.2350817918777465,-0.8268812894821167
2024-12-04 21:48:51.481768400,6.7187685546875,-0.5839463472366333,-0.2687966823577881,-0.7328461408615112
2024-12-04 21:48:51.491802400,6.72880224609375,-0.4763607680797577,-0.320463091135025,-0.6332969069480896
2024-12-04 21:48:51.501837300,6.73883740234375,-0.4249978065490722,-0.3426196873188019,-0.5808565020561218
2024-12-04 21:48:51.511872300,6.748872314453125,-0.4599246382713318,-0.3053953647613525,-0.6342645883560181
2024-12-04 21:48:51.521907500,6.758907470703125,-0.4742705225944519,-0.2458061873912811,-0.7600880861282349
2024-12-04 21:48:51.531941400,6.76894140625,-0.3829486072063446,-0.3017938137054443,-0.7832770347595215
2024-12-04 21:48:51.541976600,6.7789765625,-0.2633460760116577,-0.3995900452136993,-0.6934173703193665
2024-12-04 21:48:51.552011300,6.78901123046875,-0.2434128224849701,-0.334200918674469,-0.5970045328140259
2024-12-04 21:48:51.562046200,6.799046142578125,-0.2959850132465362,-0.2117961049079895,-0.5798258185386658
2024-12-04 21:48:51.572080400,6.809080322265625,-0.3330549001693725,-0.1221833974123001,-0.5857923626899719
2024-12-04 21:48:51.582115300,6.819115234375,-0.3191459774971008,-0.1450514495372772,-0.6025398969650269
2024-12-04 21:48:51.592150500,6.829150634765625,-0.285102516412735,-0.1533714383840561,-0.5849832892417908
2024-12-04 21:48:51.602185200,6.839185302734375,-0.2363743185997009,-0.0775233209133148,-0.5551891326904297
2024-12-04 21:48:51.612219400,6.849219482421875,-0.1766532063484192,0.028076346963644,-0.535828709602356
2024-12-04 21:48:51.622254300,6.85925439453125,-0.1204876527190208,0.1057783663272857,-0.5454543232917786
2024-12-04 21:48:51.632289500,6.86928955078125,-0.0758781060576438,0.1278764903545379,-0.5303584933280945
2024-12-04 21:48:51.642324500,6.879324462890625,-0.0574412420392036,0.1336934566497802,-0.4631459414958954
2024-12-04 21:48:51.652358400,6.8893583984375,-0.1032449528574943,0.1352503448724746,-0.3687419295310974
2024-12-04 21:48:51.662393300,6.899393310546875,-0.2001174986362457,0.1841685473918914,-0.3231351375579834
2024-12-04 21:48:51.672428300,6.90942822265625,-0.263421893119812,0.1497194916009903,-0.3147845268249511
2024-12-04 21:48:51.682463500,6.91946337890625,-0.235363483428955,-0.0240344144403934,-0.3123012483119964
2024-12-04 21:48:51.692497200,6.9294970703125,-0.1661324799060821,-0.2197141647338867,-0.333294153213501
2024-12-04 21:48:51.702532400,6.939532470703125,-0.1287402510643005,-0.3228595852851867,-0.3721692562103271
2024-12-04 21:48:51.712567300,6.9495673828125,-0.0981527939438819,-0.3053404986858368,-0.4003846347332001
2024-12-04 21:48:51.722602200,6.959602294921875,-0.0392541363835334,-0.2192204892635345,-0.4142482876777649
2024-12-04 21:48:51.732636400,6.969636474609375,0.0541740804910659,-0.1615377515554428,-0.4248037338256836
2024-12-04 21:48:51.742671400,6.97967138671875,0.1527509242296219,-0.1207387447357177,-0.4134315848350525
2024-12-04 21:48:51.752706300,6.989706298828125,0.2142579704523086,-0.0570084974169731,-0.390421599149704
2024-12-04 21:48:51.762741200,6.9997412109375,0.2431015968322754,0.0460811369121074,-0.4032348692417145
2024-12-04 21:48:51.772775400,7.009775390625,0.2475959509611129,0.0838242545723915,-0.4299410581588745
2024-12-04 21:48:51.782810400,7.019810302734375,0.2477957159280777,0.0444634594023227,-0.4197935163974762
2024-12-04 21:48:51.792845300,7.02984521484375,0.2452441453933715,0.0292935576289892,-0.4062886238098144
2024-12-04 21:48:51.802880300,7.03988037109375,0.2248933613300323,0.0360440649092197,-0.3861425220966339
2024-12-04 21:48:51.812914400,7.04991455078125,0.2241556644439697,0.0115757398307323,-0.3494012653827667
2024-12-04 21:48:51.822949400,7.059949462890625,0.2407151758670807,-0.0465545244514942,-0.3023052215576172
2024-12-04 21:48:51.832984300,7.069984375,0.2429929822683334,-0.0724513679742813,-0.2659525573253631
2024-12-04 21:48:51.843019300,7.080019287109375,0.2388006001710891,-0.0569338910281658,-0.2517980933189392
2024-12-04 21:48:51.853053400,7.090053466796875,0.2414696216583252,-0.0420034117996692,-0.2219956964254379
2024-12-04 21:48:51.863088400,7.10008837890625,0.2452103346586227,0.0054876003414392,-0.2002000361680984
2024-12-04 21:48:51.873123300,7.110123291015625,0.2336538136005401,0.0569806210696697,-0.2092625051736831
2024-12-04 21:48:51.883158500,7.120158447265625,0.2244725525379181,0.0646867081522941,-0.2141226381063461
2024-12-04 21:48:51.893192200,7.130192138671875,0.211382046341896,0.0458661466836929,-0.1852332055568695
2024-12-04 21:48:51.903227400,7.140227294921875,0.1944886296987533,0.0381803773343563,-0.1520207226276397
2024-12-04 21:48:51.913261600,7.150261474609375,0.1686575561761856,0.0606284290552139,-0.15706767141819
2024-12-04 21:48:51.923296800,7.160296875,0.1748810410499572,0.0282706767320632,-0.1582778841257095
2024-12-04 21:48:51.933330700,7.17033056640625,0.1997682750225067,-0.0203445293009281,-0.1440653949975967
2024-12-04 21:48:51.943366000,7.180365966796875,0.2089322954416275,-0.0270606130361557,-0.1212425306439399
2024-12-04 21:48:51.953400800,7.19040087890625,0.2072470486164093,0.0091868722811341,-0.1255896091461181
2024-12-04 21:48:51.963435800,7.200435791015625,0.1915222555398941,0.0386735871434211,-0.140501469373703
2024-12-04 21:48:51.973470700,7.210470703125,0.1751115918159485,0.036376878619194,-0.1419670134782791
2024-12-04 21:48:51.983505000,7.2205048828125,0.1632579267024994,0.0377962365746498,-0.142345130443573
2024-12-04 21:48:51.993539800,7.230539794921875,0.1577441245317459,0.0568213239312171,-0.1631998121738433
2024-12-04 21:48:52.003574800,7.24057470703125,0.1687403917312622,0.0372892841696739,-0.1808883249759674
2024-12-04 21:48:52.013608700,7.250608642578125,0.1961714774370193,-0.0059769637882709,-0.1684678643941879
2024-12-04 21:48:52.023643600,7.2606435546875,0.2162907421588897,-0.0050202077254652,-0.1583212465047836
2024-12-04 21:48:52.033678800,7.270678955078125,0.2322079241275787,0.0043953987769782,-0.1549025475978851
2024-12-04 21:48:52.043713800,7.2807138671875,0.2428834438323974,-0.0128339249640703,-0.132827416062355
2024-12-04 21:48:52.053748700,7.290748779296875,0.2263547927141189,0.0168536640703678,-0.1136880740523338
2024-12-04 21:48:52.063782700,7.30078271484375,0.197739839553833,0.0556216090917587,-0.1107030063867569
2024-12-04 21:48:52.073817900,7.31081787109375,0.1814074665307998,0.040709238499403,-0.103519394993782
2024-12-04 21:48:52.083852800,7.320852783203125,0.1633491963148117,0.0140722580254077,-0.0814712792634964
2024-12-04 21:48:52.093887700,7.3308876953125,0.1117341965436935,0.0364039316773414,-0.0681842342019081
2024-12-04 21:48:52.103921700,7.340921630859375,0.0512531548738479,0.0554429478943347,-0.0377443321049213
2024-12-04 21:48:52.113956600,7.35095654296875,0.0050238762050867,0.060900829732418,-0.0006662080995738
2024-12-04 21:48:52.123991800,7.36099169921875,-0.0363543033599853,0.0802786350250244,0.0220501497387886
2024-12-04 21:48:52.134026800,7.37102685546875,-0.0480639562010765,0.0554137639701366,0.0335297062993049
2024-12-04 21:48:52.144061000,7.38106103515625,-0.0438579432666301,0.0162617992609739,0.0655105859041214
2024-12-04 21:48:52.154095600,7.391095703125,-0.0632566735148429,0.0484506301581859,0.0706875026226043
2024-12-04 21:48:52.164130600,7.401130615234375,-0.0883594676852226,0.0523413904011249,0.0632223859429359
2024-12-04 21:48:52.174165800,7.411165771484375,-0.098121553659439,0.0400964394211769,0.0667047277092933
2024-12-04 21:48:52.184200000,7.421199951171875,-0.1057251319289207,0.0381386019289493,0.0699230059981346
2024-12-04 21:48:52.194235000,7.43123486328125,-0.108530506491661,0.032240230590105,0.0845123380422592
2024-12-04 21:48:52.204269600,7.44126953125,-0.1063523739576339,0.0406748354434967,0.0824608504772186
2024-12-04 21:48:52.214304800,7.4513046875,-0.1035392731428146,0.0404777638614177,0.0771710127592086
2024-12-04 21:48:52.224338700,7.461338623046875,-0.0943297743797302,0.0202080272138118,0.0776496976613998
2024-12-04 21:48:52.234374000,7.471373779296875,-0.081158846616745,-0.0099352272227406,0.0655546858906745
2024-12-04 21:48:52.244408800,7.481408935546875,-0.0605344399809837,-0.0538265146315097,0.0710998103022575
2024-12-04 21:48:52.254443500,7.491443603515625,-0.0456937104463577,-0.0615169256925582,0.0675367712974548
2024-12-04 21:48:52.264477700,7.501477783203125,-0.0384254679083824,-0.0374252498149871,0.0496634282171726
2024-12-04 21:48:52.274512600,7.5115126953125,-0.0278215575963258,-0.0322451330721378,0.0373175479471683
2024-12-04 21:48:52.284547800,7.5215478515625,-0.0151874348521232,-0.0407318249344825,0.0281628314405679
2024-12-04 21:48:52.294582800,7.531582763671875,-0.0134957954287529,-0.0527181811630725,0.0236868560314178
2024-12-04 21:48:52.304616700,7.54161669921875,-0.0167554039508104,-0.0371431857347488,0.0162242148071527
2024-12-04 21:48:52.314651600,7.551651611328125,-0.0185035038739442,-0.0152650531381368,0.0040945811197161
2024-12-04 21:48:52.324686800,7.561686767578125,-0.0196019858121871,-0.0141623094677925,-0.0077259517274796
2024-12-04 21:48:52.334721800,7.5717216796875,-0.0174751840531826,-0.0287476442754268,-0.0019490229897201
2024-12-04 21:48:52.344756700,7.5817568359375,-0.0140812322497367,-0.0267911702394485,0.0007368857041001
2024-12-04 21:48:52.354790700,7.591790771484375,-0.0119035653769969,-0.0166354719549417,-0.0067242267541587
2024-12-04 21:48:52.364825600,7.60182568359375,-0.0090990336611866,-0.0093850176781415,-0.0084835914894938
2024-12-04 21:48:52.374860800,7.61186083984375,-0.0010717340046539,-0.0086909979581832,-0.0005748020485043
2024-12-04 21:48:52.384895700,7.621895751953125,0.0048913625068962,-0.0055206948891282,0.0160606186836957
2024-12-04 21:48:52.394929700,7.6319296875,0.0086152609437704,0.0094806244596838,0.0388570129871368
2024-12-04 21:48:52.404964600,7.641964599609375,0.0025202766992151,0.0392955839633941,0.0434976629912853
2024-12-04 21:48:52.414999800,7.651999755859375,-0.0048124706372618,0.0303700007498264,0.0401825606822967
2024-12-04 21:48:52.425034800,7.66203466796875,-0.0131595069542527,-0.0011214548721909,0.0497711300849914
2024-12-04 21:48:52.435069000,7.67206884765625,-0.0168628972023725,-0.0176045577973127,0.057284440845251
2024-12-04 21:48:52.445103600,7.682103515625,-0.0108340280130505,-0.0088557694107294,0.057729847729206
2024-12-04 21:48:52.455138600,7.692138671875,-0.0081711336970329,0.0136314295232295,0.0509494394063949
2024-12-04 21:48:52.465173800,7.702173828125,-0.0036584683693945,0.0269343350082635,0.0453361049294471
2024-12-04 21:48:52.475207700,7.712207763671875,-0.0004797193105332,0.0238234959542751,0.0476024560630321
2024-12-04 21:48:52.485243000,7.722242919921875,0.0018508130451664,0.0273588430136442,0.0514824166893959
2024-12-04 21:48:52.495277600,7.732277587890625,0.0060029472224414,0.030414555221796,0.0449515469372272
2024-12-04 21:48:52.505312800,7.742312744140625,0.0080460999161005,0.0169204287230968,0.0400202013552188
2024-12-04 21:48:52.515346700,7.7523466796875,0.0066239722073078,0.0032056819181889,0.0332970507442951
2024-12-04 21:48:52.525382000,7.7623818359375,0.0069288974627852,-0.0119802337139844,0.0315642729401588
2024-12-04 21:48:52.535416800,7.772416748046875,0.001865429803729,-0.0184929929673671,0.0336793549358844
2024-12-04 21:48:52.545451500,7.782451416015625,-0.0074114315211772,-0.0154362553730607,0.0301454812288284
2024-12-04 21:48:52.555486700,7.79248681640625,-0.0155077073723077,-0.0084617035463452,0.0343261137604713
2024-12-04 21:48:52.565520600,7.802520751953125,-0.0247211977839469,-0.0074495514854788,0.0488391630351543
2024-12-04 21:48:52.575555800,7.812555908203125,-0.0210974346846342,0.0028811166994273,0.0656855255365371
2024-12-04 21:48:52.585590800,7.8225908203125,-0.0117022497579455,0.0105433035641908,0.0629349052906036
2024-12-04 21:48:52.595625700,7.832625732421875,0.0061220214702188,-0.005102768074721,0.0857067927718162
2024-12-04 21:48:52.605659600,7.84265966796875,0.0146624632179737,0.0021673541050404,0.1092920750379562
2024-12-04 21:48:52.615694800,7.85269482421875,0.0163194816559553,0.0002980814315378,0.1180078014731407
2024-12-04 21:48:52.625729800,7.862729736328125,0.0231686122715473,-0.0100064110010862,0.124650239944458
2024-12-04 21:48:52.635764700,7.8727646484375,0.0314129590988159,-0.0225645471364259,0.1312580853700637
2024-12-04 21:48:52.645798700,7.882798583984375,0.0427835583686828,-0.0370675511658191,0.1368435770273208
2024-12-04 21:48:52.655833600,7.89283349609375,0.0501418709754943,-0.0392063371837139,0.1466322839260101
2024-12-04 21:48:52.665868800,7.902868896484375,0.0460760556161403,-0.0293159261345863,0.1571661084890365
2024-12-04 21:48:52.675903700,7.91290380859375,0.0504303239285945,-0.0014451467432081,0.1684073209762573
2024-12-04 21:48:52.685939000,7.92293896484375,0.0601540580391883,0.0033623916096985,0.1933803111314773
2024-12-04 21:48:52.695972600,7.93297265625,0.0511938519775867,0.0180739592760801,0.2091981619596481
2024-12-04 21:48:52.706007800,7.9430078125,0.0354628935456275,0.0542635470628738,0.205082282423973
2024-12-04 21:48:52.716042800,7.953042724609375,0.0359342768788337,0.065159872174263,0.2019709050655365
2024-12-04 21:48:52.726077700,7.96307763671875,0.048865683376789,0.0481773056089878,0.1968296766281128
2024-12-04 21:48:52.736111600,7.973111572265625,0.075920470058918,0.0232834033668041,0.1942695826292038
2024-12-04 21:48:52.746146600,7.983146484375,0.0956697613000869,-0.0145989917218685,0.2006895542144775
2024-12-04 21:48:52.756181800,7.993181640625,0.1049522086977958,-0.0089405728504061,0.1916878074407577
2024-12-04 21:48:52.766216700,8.003216796875,0.0999897941946983,0.0054310504347085,0.1535930633544922
2024-12-04 21:48:52.776251000,8.0132509765625,0.0986177325248718,0.004069909453392,0.1041980907320976
2024-12-04 21:48:52.786285600,8.02328564453125,0.1083943620324134,-0.0090027749538421,0.0710352733731269
2024-12-04 21:48:52.796320800,8.03332080078125,0.1316299140453338,-0.0205864608287811,0.0450065955519676
2024-12-04 21:48:52.806355700,8.043355712890625,0.1530197560787201,-0.0099649457260966,0.0310464613139629
2024-12-04 21:48:52.816390000,8.053389892578124,0.1614782214164734,0.023347470909357,0.0098231974989175
2024-12-04 21:48:52.826424800,8.0634248046875,0.1679193973541259,0.0446852892637252,-0.0110272858291864
2024-12-04 21:48:52.836459500,8.07345947265625,0.1596401631832122,0.0413419567048549,-0.0268227607011795
2024-12-04 21:48:52.846494700,8.08349462890625,0.1484534591436386,0.0361425876617431,-0.0402348451316356
2024-12-04 21:48:52.856529700,8.09352978515625,0.1248272210359573,0.0198983680456876,-0.0361524857580661
2024-12-04 21:48:52.866563800,8.103563720703125,0.086985096335411,0.0223536174744367,-0.0315928272902965
2024-12-04 21:48:52.876598800,8.113598876953125,0.0370343104004859,0.0310328602790832,-0.0537095814943313
2024-12-04 21:48:52.886633700,8.1236337890625,0.0043045822530984,0.0302575342357158,-0.069916233420372
2024-12-04 21:48:52.896668700,8.133668701171874,-0.0095734158530831,0.0154037559404969,-0.0627832189202308
2024-12-04 21:48:52.906702800,8.143702880859376,-0.0094635896384716,-0.0018302374519407,-0.0356533303856849
2024-12-04 21:48:52.916738000,8.153738037109376,-0.0240534506738185,0.0005255946889519,-0.0098214671015739
2024-12-04 21:48:52.926773000,8.16377294921875,-0.0386289954185485,0.0168400015681982,-0.012870711274445
2024-12-04 21:48:52.936808200,8.17380810546875,-0.0374841019511222,0.0197031665593385,-0.0314140357077121
2024-12-04 21:48:52.946842000,8.183842041015625,-0.0150832422077655,0.0089673502370715,-0.050647709518671
2024-12-04 21:48:52.956877300,8.193877197265625,0.0056864847429096,0.0039289165288209,-0.0529574714601039
2024-12-04 21:48:52.966912300,8.203912353515625,0.0161892045289278,0.0122822644189,-0.0570161454379558
2024-12-04 21:48:52.976947000,8.213947021484374,0.0144682694226503,0.0062941471114754,-0.0668703764677047
2024-12-04 21:48:52.986982100,8.223982177734374,0.014214483089745,0.0023319725878536,-0.0973739698529243
2024-12-04 21:48:52.997016000,8.23401611328125,0.01310421153903,-0.0075701926834881,-0.1376524269580841
2024-12-04 21:48:53.007051300,8.24405126953125,0.031113464385271,-0.0316328145563602,-0.1555862575769424
2024-12-04 21:48:53.017086200,8.254086181640625,0.0457978658378124,-0.0487505495548248,-0.1512335836887359
2024-12-04 21:48:53.027121200,8.26412109375,0.034846756607294,-0.0387102328240871,-0.1677053421735763
2024-12-04 21:48:53.037155000,8.274155029296875,0.0068987431004643,-0.0190252121537923,-0.209924966096878
2024-12-04 21:48:53.047190300,8.284190185546874,-0.0041320938616991,-0.0213843937963247,-0.2415859252214431
2024-12-04 21:48:53.057225200,8.29422509765625,-0.0209976267069578,-0.0370488427579402,-0.2664787769317627
2024-12-04 21:48:53.067260200,8.30426025390625,-0.0336589477956295,-0.0949024260044097,-0.2774935066699981
2024-12-04 21:48:53.077294000,8.314294189453125,-0.0589190311729908,-0.1724875122308731,-0.2634626626968384
2024-12-04 21:48:53.087329000,8.3243291015625,-0.1087074056267738,-0.1472532600164413,-0.3021438121795654
2024-12-04 21:48:53.097364200,8.3343642578125,-0.1675688475370407,-0.1185350567102432,-0.371483713388443
2024-12-04 21:48:53.107399200,8.344399169921875,-0.1809552758932113,-0.1419077217578888,-0.4181172549724579
2024-12-04 21:48:53.117434400,8.354434326171875,-0.1643238365650177,-0.1609152257442474,-0.4484256207942962
2024-12-04 21:48:53.127468000,8.364468017578124,-0.142724871635437,-0.1352830380201339,-0.493753582239151
2024-12-04 21:48:53.137503200,8.374503173828124,-0.1229884400963783,-0.1118805110454559,-0.5328468680381775
2024-12-04 21:48:53.147538200,8.3845380859375,-0.0798015519976615,-0.0994093790650367,-0.5432699918746948
2024-12-04 21:48:53.157573000,8.394572998046876,-0.0470033884048461,-0.0703702718019485,-0.5540611147880554
2024-12-04 21:48:53.167607000,8.40460693359375,-0.037816260010004,0.0022790108341723,-0.6106537580490112
2024-12-04 21:48:53.177642000,8.41464208984375,-0.013130092062056,0.0014486371073871,-0.631528913974762
2024-12-04 21:48:53.187677200,8.42467724609375,0.0107107078656554,-0.0003378198016434,-0.6180779933929443
2024-12-04 21:48:53.197712100,8.434712158203125,-0.0054480214603245,0.0322731211781501,-0.6013852953910828
2024-12-04 21:48:53.207747300,8.444747314453124,-0.0534868016839027,0.045802216976881,-0.556202232837677
2024-12-04 21:48:53.217781000,8.454781005859376,-0.1081748083233833,0.0872718915343284,-0.5422094464302063
2024-12-04 21:48:53.227816200,8.464816162109376,-0.1250174194574356,0.0873420536518096,-0.5435824990272522
2024-12-04 21:48:53.237851100,8.47485107421875,-0.1097194254398346,0.0155661348253488,-0.4973998069763183
2024-12-04 21:48:53.247886000,8.484885986328125,-0.0997742265462875,-0.0155213726684451,-0.4258410930633545
2024-12-04 21:48:53.257920300,8.494920166015625,-0.1154253557324409,0.0367388986051082,-0.371702492237091
2024-12-04 21:48:53.267955000,8.504954833984375,-0.1438564360141754,0.0949768722057342,-0.3366124629974365
2024-12-04 21:48:53.277990100,8.514990234375,-0.1460761725902557,0.1199972704052925,-0.2870249450206756
2024-12-04 21:48:53.288025000,8.525025146484374,-0.1274677962064743,0.121317371726036,-0.2303264588117599
2024-12-04 21:48:53.298060300,8.535060302734376,-0.1205427721142768,0.144986480474472,-0.1825053989887237
2024-12-04 21:48:53.308094200,8.54509423828125,-0.1220914125442504,0.1580300778150558,-0.1380802690982818
2024-12-04 21:48:53.318129200,8.555129150390625,-0.1080565527081489,0.1385538429021835,-0.0690034702420234
2024-12-04 21:48:53.328164000,8.5651640625,-0.0979584380984306,0.1394999474287033,-0.0216926001012325
2024-12-04 21:48:53.338199000,8.575198974609375,-0.0795048624277114,0.129357561469078,0.0122339399531483
2024-12-04 21:48:53.348233200,8.585233154296875,-0.0471173524856567,0.0974878147244453,0.0589048974215984
2024-12-04 21:48:53.358268200,8.59526806640625,-0.013636359013617,0.0833293870091438,0.1084556728601455
2024-12-04 21:48:53.368303000,8.60530322265625,0.001513457740657,0.1020704209804534,0.1291808038949966
2024-12-04 21:48:53.378338000,8.615338134765626,0.0186719372868537,0.09556245803833,0.1533846855163574
2024-12-04 21:48:53.388372200,8.625372314453125,0.045165978372097,0.0557491965591907,0.1945259571075439
2024-12-04 21:48:53.398407200,8.6354072265625,0.0493743047118186,0.028382021933794,0.2246859967708587
2024-12-04 21:48:53.408442400,8.6454423828125,0.0442959181964397,0.0160315744578838,0.2474780082702636
2024-12-04 21:48:53.418477000,8.65547705078125,0.0450791530311107,0.0102903321385383,0.2525494694709778
2024-12-04 21:48:53.428512000,8.665511962890625,0.0488496720790863,0.0086384881287813,0.2547610700130462
2024-12-04 21:48:53.438546200,8.675546142578124,0.0731717869639396,-0.0196690484881401,0.2817583382129669
2024-12-04 21:48:53.448581000,8.6855810546875,0.0662703812122345,-0.003466157708317,0.2676965594291687
2024-12-04 21:48:53.458616300,8.6956162109375,0.011287560686469,0.0955270007252693,0.2269946783781051
2024-12-04 21:48:53.468651000,8.705651123046875,-0.0228498559445142,0.1095901355147361,0.1820257902145385
2024-12-04 21:48:53.478685200,8.715685302734375,-0.0293437074869871,0.0788023918867111,0.1334505379199981
2024-12-04 21:48:53.488720100,8.72572021484375,-0.0493291243910789,0.0239690095186233,0.0874600037932396
2024-12-04 21:48:53.498755300,8.73575537109375,-0.0839648693799972,-0.0022828336805105,0.0558003410696983
2024-12-04 21:48:53.508790300,8.745790283203124,-0.1043276935815811,-0.0108376713469624,0.0191723406314849
2024-12-04 21:48:53.518825000,8.755824951171874,-0.1157388091087341,-0.0445916429162025,-0.0022490611299872
2024-12-04 21:48:53.528859100,8.765859130859376,-0.1193246692419052,-0.0594669468700885,-0.0078022759407758
2024-12-04 21:48:53.538894000,8.77589404296875,-0.1242975890636444,-0.0386543422937393,-0.0168229341506958
2024-12-04 21:48:53.548929300,8.78592919921875,-0.1154815480113029,-0.0206857752054929,-0.0093224169686436
2024-12-04 21:48:53.558964200,8.795964111328125,-0.0989209488034248,-0.0104642966762185,0.0055875568650662
2024-12-04 21:48:53.568998100,8.805998046875,-0.0861830189824104,0.0273062158375978,0.0060343840159475
2024-12-04 21:48:53.579033000,8.816033203125,-0.0776830092072486,0.0450466014444828,0.0020574857480823
2024-12-04 21:48:53.589068300,8.826068359375,-0.0632850155234336,0.0417722277343273,0.0052690422162413
2024-12-04 21:48:53.599103200,8.836103271484374,-0.0530978925526142,0.0419985949993133,0.006488237529993
2024-12-04 21:48:53.609138200,8.84613818359375,-0.0504522360861301,0.0392661243677139,0.0031679673120379
2024-12-04 21:48:53.619172000,8.856172119140625,-0.0544568337500095,0.0281466301530599,-0.0033280150964856
2024-12-04 21:48:53.629207000,8.86620703125,-0.0602550767362117,0.0323389023542404,-0.0198081694543361
2024-12-04 21:48:53.639242200,8.8762421875,-0.056433442980051,0.0154264960438013,-0.0374683924019336
2024-12-04 21:48:53.649277200,8.886277099609375,-0.0494804717600345,-0.0037352917715907,-0.0510813854634761
2024-12-04 21:48:53.659311000,8.89631103515625,-0.0419389307498931,-0.0108078485354781,-0.0671186819672584
2024-12-04 21:48:53.669346000,8.906345947265624,-0.0393699742853641,-0.0273314993828535,-0.0844477042555809
2024-12-04 21:48:53.679381200,8.91638134765625,-0.0332660116255283,-0.0356978215277195,-0.0920904427766799
2024-12-04 21:48:53.689416200,8.926416259765626,-0.038650706410408,-0.034437920898199,-0.0856260806322097
2024-12-04 21:48:53.699451100,8.936451171875,-0.0433581098914146,-0.0249352306127548,-0.0854953229427337
2024-12-04 21:48:53.709485000,8.946485107421875,-0.0478714145720005,-0.0235240664333105,-0.08172607421875
2024-12-04 21:48:53.719520000,8.95652001953125,-0.0470407754182815,-0.025390675291419,-0.0819479152560234
2024-12-04 21:48:53.729555200,8.96655517578125,-0.0486981943249702,-0.0260465592145919,-0.0806658044457435
2024-12-04 21:48:53.739590100,8.976590087890624,-0.0552642159163951,-0.0275922585278749,-0.0779824033379554
2024-12-04 21:48:53.749624300,8.986624267578126,-0.0637717470526695,-0.0273410137742757,-0.0728310868144035
2024-12-04 21:48:53.759659000,8.996658935546876,-0.0650828257203102,-0.0302611701190471,-0.0670589506626129
2024-12-04 21:48:53.769694200,9.006694091796875,-0.0683961138129234,-0.0281458646059036,-0.0700131207704544
2024-12-04 21:48:53.779729200,9.016729248046875,-0.0664826333522796,-0.0345390513539314,-0.0697092562913894
2024-12-04 21:48:53.789764000,9.02676416015625,-0.0617688857018947,-0.0415069870650768,-0.0729843452572822
2024-12-04 21:48:53.799798300,9.03679833984375,-0.0548550523817539,-0.0460775047540664,-0.0757708102464675
2024-12-04 21:48:53.809833000,9.0468330078125,-0.0508788377046585,-0.0431017503142356,-0.0663182213902473
2024-12-04 21:48:53.819868200,9.0568681640625,-0.0446262694895267,-0.0261110514402389,-0.06068030372262
2024-12-04 21:48:53.829903000,9.066903076171876,-0.0294513646513223,0.0004810635000467,-0.0589256063103675
2024-12-04 21:48:53.839937300,9.076937255859375,-0.0174860469996929,0.0174933355301618,-0.0588084235787391
2024-12-04 21:48:53.849972200,9.08697216796875,-0.0090094842016696,0.0185944773256778,-0.0600193478167057
2024-12-04 21:48:53.860007200,9.097007080078123,-0.0038634585216641,0.0113370958715677,-0.0558035634458065
2024-12-04 21:48:53.870042000,9.1070419921875,-0.0080711049959063,-0.0011067693121731,-0.0468655414879322
2024-12-04 21:48:53.880077000,9.1170771484375,-0.0106104286387562,-0.0163488388061523,-0.0270889066159725
2024-12-04 21:48:53.890111200,9.127111328125,-0.0188168343156576,-0.0203803144395351,-0.0137734301388263
2024-12-04 21:48:53.900146200,9.137146240234374,-0.0190413389354944,-0.0195534043014049,-0.0017971950583159
2024-12-04 21:48:53.910180600,9.1471806640625,-0.0087287994101643,-0.0255512241274118,0.0062462436035275
2024-12-04 21:48:53.920215600,9.157215576171875,0.0224618762731552,-0.04462131857872,0.0134903080761432
2024-12-04 21:48:53.930250800,9.167250732421875,0.05477961525321,-0.0501638166606426,0.0233173556625843
2024-12-04 21:48:53.940284700,9.17728466796875,0.0803920328617096,-0.0300532206892967,0.0321691706776618
2024-12-04 21:48:53.950319900,9.18731982421875,0.1067759990692138,-0.0436668433248996,0.0512731783092021
2024-12-04 21:48:53.960354600,9.1973544921875,0.1392636448144912,-0.0632301568984985,0.0802640840411186
2024-12-04 21:48:53.970389500,9.207389404296874,0.1574274599552154,-0.06303521245718,0.1006921231746673
2024-12-04 21:48:53.980423700,9.217423583984376,0.1768472343683242,-0.0493782572448253,0.1090334132313728
2024-12-04 21:48:53.990458600,9.227458740234376,0.1948086023330688,-0.0578966848552227,0.1134487390518188
2024-12-04 21:48:54.000493800,9.237493896484375,0.209197387099266,-0.0740588754415512,0.1209375485777854
2024-12-04 21:48:54.010528500,9.247528564453123,0.2068886756896972,-0.0577900893986225,0.1337057203054428
2024-12-04 21:48:54.020563700,9.257563720703123,0.189536839723587,-0.0238406434655189,0.137707382440567
2024-12-04 21:48:54.030597600,9.26759765625,0.1701735854148864,0.0130221163854002,0.124138094484806
2024-12-04 21:48:54.040632800,9.2776328125,0.1648025214672088,0.0127494083717465,0.1144867986440658
2024-12-04 21:48:54.050667800,9.287667724609374,0.1645055264234542,-0.0007566681597381,0.1058406755328178
2024-12-04 21:48:54.060702500,9.297702392578126,0.1648674458265304,-0.0121089247986674,0.0938993319869041
2024-12-04 21:48:54.070737700,9.307737548828126,0.1440785378217697,0.0033266793470829,0.0689149051904678
2024-12-04 21:48:54.080771600,9.317771484375,0.1147968098521232,0.0253752544522285,0.0358038209378719
2024-12-04 21:48:54.090806800,9.327806884765623,0.0899796932935714,0.0401312708854675,0.0087450519204139
2024-12-04 21:48:54.100841700,9.337841796875,0.0712430253624916,0.0389474965631961,-0.0084400596097111
2024-12-04 21:48:54.110876700,9.347876708984376,0.0551557019352912,0.0287619363516569,-0.0103858169168233
2024-12-04 21:48:54.120910600,9.35791064453125,0.0494040697813034,0.0047253090888261,-0.0073045399039983
2024-12-04 21:48:54.130945800,9.36794580078125,0.0425231829285621,-0.010871997103095,-0.0022818362340331
2024-12-04 21:48:54.140980700,9.377980712890626,0.0251527167856693,-0.0113484365865588,-0.0062989485450088
2024-12-04 21:48:54.151015700,9.388015625,-0.0030178572051227,0.0014091411139816,-0.0145488698035478
2024-12-04 21:48:54.161050600,9.398050537109375,-0.0285770129412412,0.0181250050663948,-0.0202525630593299
2024-12-04 21:48:54.171084500,9.40808447265625,-0.0485890917479991,0.0268341861665248,-0.0275740884244442
2024-12-04 21:48:54.181119700,9.41811962890625,-0.0581418499350547,0.0234082955867052,-0.0259610153734684
2024-12-04 21:48:54.191154700,9.42815478515625,-0.0735670924186706,0.0131655931472778,-0.0249646678566932
2024-12-04 21:48:54.201189600,9.438189697265624,-0.0951280444860458,-0.0066382056102156,-0.0266403295099735
2024-12-04 21:48:54.211223600,9.4482236328125,-0.1067955568432807,-0.0302410311996936,-0.0332738123834133
2024-12-04 21:48:54.221258800,9.4582587890625,-0.1018511354923248,-0.0699618160724639,-0.0390645898878574
2024-12-04 21:48:54.231293700,9.468293701171875,-0.1030385941267013,-0.0797057375311851,-0.0500757731497287
2024-12-04 21:48:54.241328600,9.47832861328125,-0.1014944911003112,-0.0578853972256183,-0.0575478039681911
2024-12-04 21:48:54.251363800,9.48836376953125,-0.068786047399044,-0.0484929904341697,-0.0505386851727962
2024-12-04 21:48:54.261397500,9.4983974609375,-0.0381921865046024,-0.0230403635650873,-0.0575401373207569
2024-12-04 21:48:54.271432700,9.5084326171875,-0.0199160352349281,0.0023106769658625,-0.1003029569983482
2024-12-04 21:48:54.281467600,9.518467529296874,-0.0083637740463018,-0.0405678153038024,-0.1144464686512947
2024-12-04 21:48:54.291502600,9.528502685546876,-0.0001817271113395,-0.0636266767978668,-0.1042946577072143
2024-12-04 21:48:54.301537800,9.538537841796876,-0.0065658567473292,-0.0432273969054222,-0.1085850149393081
2024-12-04 21:48:54.311571700,9.54857177734375,-0.0083746574819087,-0.0479357503354549,-0.1028370037674903
2024-12-04 21:48:54.321606700,9.558606689453123,0.0166515987366437,-0.0944561064243316,-0.0790347382426261
2024-12-04 21:48:54.331641600,9.5686416015625,0.0383292250335216,-0.1084412410855293,-0.0520445816218853
2024-12-04 21:48:54.341676800,9.5786767578125,0.0540032610297203,-0.0718006715178489,-0.028077196329832
2024-12-04 21:48:54.351711700,9.588711669921874,0.0731801316142082,-0.0436445176601409,-0.0043858205899596
2024-12-04 21:48:54.361745700,9.59874560546875,0.0815991833806037,-0.0469175428152084,0.0217445828020572
2024-12-04 21:48:54.371780600,9.608780517578126,0.0790178924798965,-0.0473048277199268,0.0336747094988822
2024-12-04 21:48:54.381815600,9.618815673828124,0.0819004997611045,-0.0721806213259697,0.0561019890010356
2024-12-04 21:48:54.391850800,9.628850830078123,0.0969204008579254,-0.0764876008033752,0.0772411823272705
2024-12-04 21:48:54.401884700,9.638884765625,0.1090947762131691,-0.0556499660015106,0.0835701823234558
2024-12-04 21:48:54.411919600,9.648919677734376,0.1172324791550636,-0.0585227347910404,0.0936369970440864
2024-12-04 21:48:54.421954600,9.65895458984375,0.1248704195022583,-0.0519069097936153,0.120798572897911
2024-12-04 21:48:54.431989800,9.66898974609375,0.1190964952111244,0.006560327950865,0.1327235698699951
2024-12-04 21:48:54.442024700,9.679024658203126,0.1096177697181701,0.0574283003807067,0.1137264370918273
2024-12-04 21:48:54.452058600,9.68905859375,0.0994199588894844,0.0649242922663688,0.0893880054354667
2024-12-04 21:48:54.462093600,9.699093505859375,0.1039390712976455,0.0299149118363857,0.0814025178551673
2024-12-04 21:48:54.472128500,9.70912841796875,0.1000368073582649,-0.0107851782813668,0.085289292037487
2024-12-04 21:48:54.482163700,9.719163818359377,0.0784164667129516,0.0008546998724341,0.0758627653121948
2024-12-04 21:48:54.492198700,9.72919873046875,0.0493649952113628,0.0455031469464302,0.0411664955317974
2024-12-04 21:48:54.502232600,9.739232666015624,0.0337197221815586,0.0486930832266807,0.010331617668271
2024-12-04 21:48:54.512267500,9.749267578125,0.0259680468589067,0.0311249271035194,-0.00353783974424
2024-12-04 21:48:54.522302700,9.759302734375,0.0350595489144325,0.0210304837673902,-0.000480530783534
2024-12-04 21:48:54.532337700,9.769337646484376,0.0422015599906444,0.0259380713105201,0.0185335986316204
2024-12-04 21:48:54.542372600,9.77937255859375,0.0324338860809803,0.0582376904785633,0.0325767137110233
2024-12-04 21:48:54.552406500,9.789406494140623,-0.0324480012059211,0.0351252853870391,0.0129145691171288
2024-12-04 21:48:54.562441500,9.79944140625,-0.0799332335591316,0.0284442119300365,-0.0445300824940204
2024-12-04 21:48:54.572476700,9.8094765625,-0.0342847816646099,0.0348930545151233,-0.0541313104331493
2024-12-04 21:48:54.582511600,9.81951171875,0.068760372698307,-0.0381337516009807,-0.0204223468899726
2024-12-04 21:48:54.592546800,9.829546875,0.0851689204573631,-0.0750938206911087,-0.0119420625269413
2024-12-04 21:48:54.602580500,9.83958056640625,0.0352202728390693,0.0296642836183309,-0.0581553652882576
2024-12-04 21:48:54.612615700,9.84961572265625,-0.0098087526857852,0.0754294469952583,-0.1367794275283813
2024-12-04 21:48:54.622650600,9.859650634765623,-0.0483122020959854,0.0424382090568542,-0.2200514078140258
2024-12-04 21:48:54.632685600,9.869685546875,-0.0917655080556869,-0.039897583425045,-0.3022134900093078
2024-12-04 21:48:54.642719700,9.8797197265625,-0.1326721906661987,-0.0976295843720436,-0.3357378840446472
2024-12-04 21:48:54.652754400,9.88975439453125,-0.1245254725217819,-0.1324981451034546,-0.3188947737216949
2024-12-04 21:48:54.662789600,9.89978955078125,-0.087363988161087,-0.1156744286417961,-0.2994515597820282
2024-12-04 21:48:54.672824600,9.909824462890626,-0.0548385679721832,-0.0811219736933708,-0.2891976833343506
2024-12-04 21:48:54.682859800,9.91985986328125,-0.0291627664119005,-0.0500282309949398,-0.2816920876502991
2024-12-04 21:48:54.692893700,9.929893798828124,-0.0285149179399013,-0.0025133085437119,-0.3132177889347076
2024-12-04 21:48:54.702928600,9.9399287109375,-0.0348678901791572,0.04357935115695,-0.3545146286487579
2024-12-04 21:48:54.712963600,9.949963623046877,-0.0336350724101066,0.0545446574687957,-0.3847976326942444
2024-12-04 21:48:54.722998500,9.95999853515625,-0.0163322482258081,0.0219875127077102,-0.3863419890403747
2024-12-04 21:48:54.733033700,9.97003369140625,0.0162347499281168,-0.0558183342218399,-0.3400533199310303
2024-12-04 21:48:54.743067600,9.980067626953126,0.0616629496216774,-0.0988765880465507,-0.2534624934196472
2024-12-04 21:48:54.753102600,9.9901025390625,0.1202556490898132,-0.0669549256563186,-0.1959972530603408
2024-12-04 21:48:54.763137500,10.000137451171875,0.1897516250610351,-0.0272905994206666,-0.1678114235401153
2024-12-04 21:48:54.773172700,10.0101728515625,0.2844568192958832,-0.0386390574276447,-0.1340146660804748
2024-12-04 21:48:54.783207700,10.020207763671875,0.384554922580719,-0.1001588776707649,-0.0687392503023147
2024-12-04 21:48:54.793241900,10.030241943359377,0.4637084305286407,-0.1349731385707855,0.0394434928894043
2024-12-04 21:48:54.803276500,10.040276611328125,0.4936141073703766,-0.1087623164057731,0.160729706287384
2024-12-04 21:48:54.813311500,10.0503115234375,0.4566291868686676,0.0498274005949497,0.1812506169080734
2024-12-04 21:48:54.823346700,10.0603466796875,0.4033555686473846,0.0819251462817192,0.1918981969356537
2024-12-04 21:48:54.833381600,10.070381591796876,0.3516819477081299,0.0926278978586196,0.196875974535942
2024-12-04 21:48:54.843415800,10.080415771484375,0.3064396381378174,0.0861926302313804,0.2391504496335983
2024-12-04 21:48:54.853450500,10.090450439453123,0.24330435693264,0.0979969054460525,0.2576580643653869
2024-12-04 21:48:54.863485700,10.100485595703123,0.1814140975475311,0.0289770886301994,0.3133405148983001
2024-12-04 21:48:54.873520600,10.110520751953125,0.1127203181385994,0.039854098111391,0.3276189565658569
2024-12-04 21:48:54.883554800,10.120554931640624,0.0967179089784622,-0.0449055321514606,0.3379027545452118
2024-12-04 21:48:54.893589800,10.13058984375,0.086939550936222,-0.116276316344738,0.3144215941429138
2024-12-04 21:48:54.903624400,10.14062451171875,0.075053334236145,-0.1691067665815353,0.2683930993080139
2024-12-04 21:48:54.913660200,10.15066015625,0.0413789488375186,-0.1445969045162201,0.1704259812831878
2024-12-04 21:48:54.923695400,10.1606953125,0.0197990890592336,-0.0636866092681884,0.0899793431162834
2024-12-04 21:48:54.933729300,10.170729248046875,0.0191114041954278,0.0007865279912948,0.0264574661850929
2024-12-04 21:48:54.943764200,10.18076416015625,0.0108260437846183,0.06405870616436,-0.0295711811631917
2024-12-04 21:48:54.953799200,10.190799072265625,0.0113233653828501,0.0357633642852306,0.012773553840816
2024-12-04 21:48:54.963834400,10.20083447265625,-0.0031386641785502,0.0707644894719123,0.0450321547687053
2024-12-04 21:48:54.973869300,10.210869384765624,-0.0282468143850564,0.0855547860264778,0.0387479960918426
2024-12-04 21:48:54.983903200,10.2209033203125,-0.0512349531054496,0.0595223903656005,0.02969591319561
2024-12-04 21:48:54.993938200,10.230938232421876,-0.0710223838686943,0.0665925666689872,0.0034061702899634
2024-12-04 21:48:55.003973000,10.24097314453125,-0.0861933454871177,0.0509427711367607,-0.016783520579338
2024-12-04 21:48:55.014008300,10.25100830078125,-0.1134774535894393,0.0417981185019016,-0.0281618367880582
2024-12-04 21:48:55.024043300,10.261043212890623,-0.1207244470715522,-0.0130944242700934,0.0415354818105697
2024-12-04 21:48:55.034077200,10.2710771484375,-0.156248927116394,0.0734059140086174,0.0215979143977165
2024-12-04 21:48:55.044112100,10.281112060546874,-0.1916306167840957,0.1047313511371612,-0.0074547766707837
2024-12-04 21:48:55.054147300,10.291147216796874,-0.1797853708267212,0.0706196054816246,0.0374324992299079
2024-12-04 21:48:55.064182300,10.301182373046874,-0.1518402993679046,0.0824640169739723,0.0835043787956237
2024-12-04 21:48:55.074217200,10.31121728515625,-0.150669664144516,0.1070342808961868,0.0659365952014923
2024-12-04 21:48:55.084251100,10.321251220703124,-0.1394777297973632,0.0440103150904178,0.1021734327077865
2024-12-04 21:48:55.094286000,10.3312861328125,-0.1554874628782272,0.0491755008697509,0.0994951501488685
2024-12-04 21:48:55.104321300,10.3413212890625,-0.1870248913764953,0.0340956151485443,0.0567737892270088
2024-12-04 21:48:55.114356200,10.351356201171876,-0.1871290355920791,-0.049489676952362,0.0450565740466117
2024-12-04 21:48:55.124391400,10.361391357421876,-0.1940322071313858,-0.0748352408409118,0.0739089921116828
2024-12-04 21:48:55.134425000,10.371425048828126,-0.2114858329296112,-0.0372011363506317,0.0696383118629455
2024-12-04 21:48:55.144460300,10.381460205078126,-0.2212899923324585,-0.0503470338881015,0.0375322997570037
2024-12-04 21:48:55.154495200,10.3914951171875,-0.2270553857088089,-0.0923313051462173,0.0340122804045677
2024-12-04 21:48:55.164530200,10.4015302734375,-0.2562870681285858,-0.0928466245532035,-0.0178405288606882
2024-12-04 21:48:55.174565400,10.4115654296875,-0.2820408940315246,-0.152450144290924,-0.0285862199962139
2024-12-04 21:48:55.184599000,10.42159912109375,-0.2905648648738861,-0.1596278995275497,-0.027189128100872
2024-12-04 21:48:55.194634200,10.43163427734375,-0.3156351447105407,-0.1657169610261917,-0.0276451222598552
2024-12-04 21:48:55.204669200,10.441669189453124,-0.3290830254554748,-0.178321436047554,0.0113504789769649
2024-12-04 21:48:55.214704400,10.451704345703124,-0.3387729823589325,-0.1149112731218338,0.0152688501402735
2024-12-04 21:48:55.224739300,10.4617392578125,-0.3599192798137665,-0.0795687288045883,-0.0075637614354491
2024-12-04 21:48:55.234773200,10.471773193359375,-0.3569289743900299,-0.0969899669289588,0.0259189363569021
2024-12-04 21:48:55.244808200,10.48180810546875,-0.3496004939079284,-0.1060444489121437,0.0532546862959861
2024-12-04 21:48:55.254843100,10.491843017578123,-0.3323073089122772,-0.1424766182899475,0.0717935860157013
2024-12-04 21:48:55.264878300,10.50187841796875,-0.3305299282073974,-0.1789097189903259,0.08824472874403
2024-12-04 21:48:55.274913300,10.511913330078125,-0.3560040891170501,-0.1470882147550583,0.1018050909042358
2024-12-04 21:48:55.284947200,10.521947265625,-0.3767828941345215,-0.0850639939308166,0.1023108288645744
2024-12-04 21:48:55.294982100,10.531982177734376,-0.3619866967201233,-0.0745205134153366,0.0830308720469474
2024-12-04 21:48:55.305017300,10.542017333984376,-0.3365069031715393,-0.0623426772654056,0.0640473291277885
2024-12-04 21:48:55.315052300,10.55205224609375,-0.3154327869415283,-0.01671645604074,-0.0052753877826035
2024-12-04 21:48:55.325087200,10.562087158203123,-0.3025084733963012,-0.0320410840213298,-0.0763112157583236
2024-12-04 21:48:55.335121200,10.57212109375,-0.2797863185405731,-0.0656258165836334,-0.1145436614751815
2024-12-04 21:48:55.345156000,10.582156005859376,-0.276768147945404,-0.0522676669061183,-0.1420653015375137
2024-12-04 21:48:55.355191300,10.59219140625,-0.2670697569847107,-0.0389132536947727,-0.1468811631202697
2024-12-04 21:48:55.365226200,10.602226318359374,-0.2520822882652282,0.0004450713749974,-0.1724403202533722
2024-12-04 21:48:55.375261200,10.61226123046875,-0.2298867106437683,0.0241218656301498,-0.1824440658092498
2024-12-04 21:48:55.385295000,10.622295166015626,-0.2125093191862106,0.044569082558155,-0.190220758318901
2024-12-04 21:48:55.395330300,10.632330322265624,-0.1995732635259628,0.0497307516634464,-0.186764970421791
2024-12-04 21:48:55.405365200,10.642365234375,-0.2001138776540756,0.1027638763189315,-0.2068555802106857
2024-12-04 21:48:55.415400200,10.652400146484377,-0.1531668007373809,0.0398740246891975,-0.1948630809783935
2024-12-04 21:48:55.425435400,10.662435302734377,-0.1674541234970092,0.0891052260994911,-0.1581479460000991
2024-12-04 21:48:55.435469000,10.672468994140624,-0.2034840732812881,0.1411684155464172,-0.1221628412604332
2024-12-04 21:48:55.445504300,10.682504150390624,-0.2023234665393829,0.0794643014669418,-0.0585002414882183
2024-12-04 21:48:55.455539200,10.692539306640626,-0.2050292491912841,0.071294754743576,-0.0442636385560035
2024-12-04 21:48:55.465574100,10.70257421875,-0.2108663618564605,0.0501899980008602,-0.0095370821654796
2024-12-04 21:48:55.475609300,10.712609375,-0.1973758339881897,0.05818572640419,0.0414116866886615
2024-12-04 21:48:55.485643300,10.722643310546877,-0.1936484724283218,0.0950657054781913,0.042945135384798
2024-12-04 21:48:55.495678200,10.73267822265625,-0.1735203564167022,0.0650878697633743,0.0749140530824661
2024-12-04 21:48:55.505713200,10.742713134765625,-0.1592359542846679,0.0389342978596687,0.1359286606311798
2024-12-04 21:48:55.515748400,10.752748291015624,-0.1547072231769561,0.0685679838061332,0.1844452917575836
2024-12-04 21:48:55.525783300,10.762783203125,-0.178797647356987,0.1156137883663177,0.2185161709785461
2024-12-04 21:48:55.535817200,10.772817138671876,-0.1795831173658371,0.1132580414414405,0.2733351290225982
2024-12-04 21:48:55.545852200,10.78285205078125,-0.1527842581272125,0.0924752652645111,0.3028088808059692
2024-12-04 21:48:55.555887000,10.79288720703125,-0.1027897149324417,0.0662719160318374,0.3050154447555542
2024-12-04 21:48:55.565922300,10.80292236328125,-0.0842421278357505,0.0544378906488418,0.3071968257427215
2024-12-04 21:48:55.575957200,10.812957275390623,-0.083179622888565,0.046224869787693,0.2977683544158935
2024-12-04 21:48:55.585991200,10.8229912109375,-0.1276307106018066,0.109853908419609,0.2824535667896271
2024-12-04 21:48:55.596026000,10.833026123046874,-0.1875627189874649,0.155001163482666,0.2835292816162109
2024-12-04 21:48:55.606061300,10.843061279296874,-0.2050980329513549,0.0703017190098762,0.3286557495594024
2024-12-04 21:48:55.616096300,10.85309619140625,-0.1851935088634491,0.002505222801119,0.3827700018882751
2024-12-04 21:48:55.626131200,10.863131103515624,-0.1794144511222839,0.0023688687942922,0.3973119258880615
2024-12-04 21:48:55.636165000,10.8731650390625,-0.1870310753583908,0.0046058138832449,0.4378473162651062
2024-12-04 21:48:55.646200000,10.883199951171877,-0.209261804819107,0.0369762703776359,0.4957071542739868
2024-12-04 21:48:55.656235300,10.8932353515625,-0.2178058326244354,0.0794707164168357,0.5398976802825928
2024-12-04 21:48:55.666270200,10.903270263671876,-0.2311290949583053,0.14962238073349,0.5686448812484741
2024-12-04 21:48:55.676305400,10.913305419921874,-0.2305599302053451,0.1814373731613159,0.5994777083396912
2024-12-04 21:48:55.686339000,10.923339111328126,-0.2156299948692321,0.1615448892116546,0.6460697054862976
2024-12-04 21:48:55.696374300,10.933374267578126,-0.1905272901058197,0.1549078077077865,0.7125452756881714
2024-12-04 21:48:55.706409200,10.9434091796875,-0.1762833595275879,0.2178510874509811,0.7737566828727722
2024-12-04 21:48:55.716444200,10.953444091796875,-0.1778102368116378,0.2588465213775635,0.8153542876243591
2024-12-04 21:48:55.726479400,10.963479248046877,-0.1744296103715896,0.1988423019647598,0.8970121145248413
2024-12-04 21:48:55.736513000,10.973512939453125,-0.1663100123405456,0.1702574491500854,0.9634989500045776
2024-12-04 21:48:55.746548200,10.98354833984375,-0.1761203110218048,0.2079014927148819,1.0123854875564575
2024-12-04 21:48:55.756583200,10.993583251953124,-0.1791789978742599,0.2087004631757736,1.069426417350769
2024-12-04 21:48:55.766618400,11.003618408203126,-0.1706733852624893,0.2128720432519912,1.127319574356079
2024-12-04 21:48:55.776653300,11.0136533203125,-0.1389613896608352,0.2157879173755645,1.192693114280701
2024-12-04 21:48:55.786687200,11.023687255859375,-0.1019045561552047,0.2079997658729553,1.2619034051895142
2024-12-04 21:48:55.796722200,11.03372216796875,-0.0737919509410858,0.2232997119426727,1.3386958837509155
2024-12-04 21:48:55.806757000,11.043757080078125,-0.0370240807533264,0.2549308836460113,1.3833246231079102
2024-12-04 21:48:55.816792300,11.053792236328125,0.0200565885752439,0.3014240562915802,1.414740800857544
2024-12-04 21:48:55.826827300,11.0638271484375,0.0892463102936744,0.3806541562080383,1.4217044115066528
2024-12-04 21:48:55.836861200,11.073861083984376,0.1316677778959274,0.494605541229248,1.428898811340332
2024-12-04 21:48:55.846896000,11.083896240234376,0.1654603630304336,0.5932226777076721,1.4279581308364868
2024-12-04 21:48:55.856931300,11.093931396484376,0.2171752303838729,0.5923224091529846,1.474644899368286
2024-12-04 21:48:55.866966300,11.10396630859375,0.2543420493602752,0.5028876066207886,1.6260205507278442
2024-12-04 21:48:55.877001200,11.114001220703123,0.2465216666460037,0.7014093399047852,1.6823331117630005
2024-12-04 21:48:55.887035100,11.12403515625,0.2082871943712234,0.8893760442733765,1.6873537302017212
2024-12-04 21:48:55.897070000,11.134070068359376,0.2511192858219147,0.8270823955535889,1.6845800876617432
2024-12-04 21:48:55.907105300,11.144105224609374,0.3537551164627075,0.6626330018043518,1.6503432989120483
2024-12-04 21:48:55.917140000,11.154139892578126,0.4736497104167938,0.4948458671569824,1.63560950756073
2024-12-04 21:48:55.927175200,11.164175048828126,0.5748870968818665,0.3983291685581207,1.6358566284179688
2024-12-04 21:48:55.937209000,11.174208984375,0.6751520037651062,0.3839488327503204,1.648723006248474
2024-12-04 21:48:55.947244000,11.184244140625,0.7756051421165466,0.4948934614658355,1.6124813556671145
2024-12-04 21:48:55.957279000,11.194279052734377,0.8495182394981384,0.7029100656509399,1.5356345176696775
2024-12-04 21:48:55.967314000,11.20431396484375,0.9108417630195618,0.885960578918457,1.440474271774292
2024-12-04 21:48:55.977349000,11.21434912109375,0.9845683574676514,0.961962640285492,1.3302274942398071
2024-12-04 21:48:55.987384000,11.224384033203124,1.071999192237854,0.9206096529960632,1.238695502281189
2024-12-04 21:48:55.997418000,11.23441796875,1.2210243940353394,0.8740202784538269,1.2228156328201294
2024-12-04 21:48:56.007453000,11.244452880859376,1.3887039422988892,0.9050852060317992,1.1885192394256592
2024-12-04 21:48:56.017488100,11.254488037109375,1.5133134126663208,0.9307937622070312,1.1770923137664795
2024-12-04 21:48:56.027523000,11.264523193359375,1.6173652410507202,1.0101492404937744,1.2190040349960327
2024-12-04 21:48:56.037558000,11.27455810546875,1.7045081853866575,1.127049446105957,1.2738093137741089
2024-12-04 21:48:56.047592000,11.284592041015625,1.7546544075012207,1.0796291828155518,1.3246029615402222
2024-12-04 21:48:56.057627000,11.294626953125,1.799791932106018,0.90422260761261,1.3640729188919067
2024-12-04 21:48:56.067662000,11.304662109375,1.778641939163208,0.5742889046669006,1.395655632019043
2024-12-04 21:48:56.077697000,11.314697021484376,1.7174397706985474,0.1819954812526703,1.445356369018555
2024-12-04 21:48:56.087732000,11.32473193359375,1.6258803606033323,-0.1541609615087509,1.5031826496124268
2024-12-04 21:48:56.097766000,11.334765869140623,1.5641669034957886,-0.3667843341827392,1.5562671422958374
2024-12-04 21:48:56.107801000,11.344801025390623,1.4896005392074585,-0.465093582868576,1.5626288652420044
2024-12-04 21:48:56.117836000,11.3548359375,1.3840000629425049,-0.4590601623058319,1.4805681705474854
2024-12-04 21:48:56.127871000,11.36487109375,1.2500749826431274,-0.369534283876419,1.3054683208465576
2024-12-04 21:48:56.137906200,11.37490625,1.1030058860778809,-0.2290251106023788,1.1011978387832642
2024-12-04 21:48:56.147939800,11.38493994140625,1.0053681135177612,-0.0528317131102085,0.9057130217552184
2024-12-04 21:48:56.157975000,11.39497509765625,0.9599918723106384,0.1064355373382568,0.7285021543502808
2024-12-04 21:48:56.168010000,11.405010009765626,0.908396542072296,0.192960038781166,0.5842562913894653
2024-12-04 21:48:56.178045000,11.415044921875,0.8358471989631653,0.2096528112888336,0.4545000493526459
2024-12-04 21:48:56.188080000,11.425080078125,0.7657368183135986,0.1748889684677124,0.3535872995853424
2024-12-04 21:48:56.198115000,11.435114990234377,0.6374853849411011,0.1068876907229423,0.382080614566803
2024-12-04 21:48:56.208149000,11.44514892578125,0.4509783685207367,-0.0106490552425384,0.4880658984184265
2024-12-04 21:48:56.218184000,11.455183837890624,0.3651952743530273,-0.0470948666334152,0.4489850699901581
2024-12-04 21:48:56.228219100,11.46521923828125,0.3927693665027618,0.0761857852339744,0.2094425112009048
2024-12-04 21:48:56.238254000,11.475254150390626,0.3915653228759765,0.2477147430181503,-0.1205115169286727
