time,seconds_elapsed,z,y,x
2024-12-04 22:02:21.120294400,0.01429443359375,3.653737611359358,-0.1631769573558121,1.746811957015842
2024-12-04 22:02:21.130320400,0.0243203125,3.1230887661576268,-0.4506622852951288,1.6435674172490835
2024-12-04 22:02:21.140347100,0.03434716796875,2.5774749915361403,-0.6281237885911017,1.3716343901634216
2024-12-04 22:02:21.150373000,0.044373046875,1.6074334430724382,-0.9899760099243372,0.2543083769373596
2024-12-04 22:02:21.160399000,0.054399169921875,1.0406143833369017,-1.3503914033874869,-1.0100748681664466
2024-12-04 22:02:21.170426400,0.06442626953125,1.226375439879298,-1.2052411741748452,-1.0600674179561436
2024-12-04 22:02:21.180452400,0.074452392578125,0.8370318388998508,-1.384351979047805,-1.3885460697367786
2024-12-04 22:02:21.190479400,0.084479248046875,0.2940355533003806,-1.375180976729095,-1.1210896035432816
2024-12-04 22:02:21.200505300,0.09450537109375,0.2553781981259584,-1.2852531607836484,-0.5612704856976867
2024-12-04 22:02:21.210532000,0.104531982421875,0.3050426850050687,-1.4124294880189,-0.1850268970489501
2024-12-04 22:02:21.220558000,0.11455810546875,0.4147656270056962,-1.5701505911216138,0.3259679841339588
2024-12-04 22:02:21.230585300,0.12458544921875,0.2405962240576744,-1.5657706224717198,0.894880216756463
2024-12-04 22:02:21.240611300,0.134611328125,-0.1340273621737956,-1.396378370797634,1.3646755109362303
2024-12-04 22:02:21.250637300,0.14463720703125,-0.7611766797095537,-1.1807514605626463,1.5302392903633415
2024-12-04 22:02:21.260664300,0.154664306640625,-1.4517565591484307,-1.0701268935471773,1.4433167937137186
2024-12-04 22:02:21.270690300,0.164690185546875,-2.522709966647625,-0.8318737254843115,1.2704612498432395
2024-12-04 22:02:21.280717300,0.17471728515625,-4.041426430869103,-0.3058006637655198,1.140599629046768
2024-12-04 22:02:21.290743300,0.184743408203125,-5.036607681286335,0.1802827712617814,0.7864860391415656
2024-12-04 22:02:21.300770300,0.194770263671875,-5.465784110960364,0.3526611991398036,0.3874617327556013
2024-12-04 22:02:21.310796300,0.20479638671875,-5.338109332683682,0.139327952799946,0.141769208472222
2024-12-04 22:02:21.320823300,0.2148232421875,-4.907796007934213,-0.2095407221890985,-0.0442317943058908
2024-12-04 22:02:21.330849300,0.224849365234375,-4.316313047063351,-0.4636166055448353,-0.1578133114308118
2024-12-04 22:02:21.340875300,0.234875244140625,-3.661760174295306,-0.5146108797229826,-0.1119819729737937
2024-12-04 22:02:21.350902300,0.24490234375,-3.2924393706470725,-0.4193047317400574,0.0540909250192344
2024-12-04 22:02:21.360928300,0.25492822265625,-3.2230010927617547,-0.1422894329540431,0.2342484624661505
2024-12-04 22:02:21.370955300,0.264955322265625,-3.2298739011406896,0.2968264991931617,0.6363790643043816
2024-12-04 22:02:21.380981200,0.274981201171875,-3.270745425233245,0.7202195231601596,0.9500671203188598
2024-12-04 22:02:21.391008300,0.28500830078125,-3.448579780429601,1.1920942539624868,1.2358913101129234
2024-12-04 22:02:21.401034200,0.2950341796875,-3.745410517406464,1.6375748988360166,1.3004431311309337
2024-12-04 22:02:21.411060200,0.305060302734375,-4.28518608739376,2.179047774260491,1.227757834148407
2024-12-04 22:02:21.421087200,0.315087158203125,-4.1259781067341565,2.383162379747629,0.8582970375075936
2024-12-04 22:02:21.431113200,0.32511328125,-3.142742730176449,1.8654843675389885,0.4651844393834471
2024-12-04 22:02:21.441140200,0.33514013671875,-2.113371040865778,1.13359267289415,0.3781330556571483
2024-12-04 22:02:21.451166200,0.345166259765625,-0.8031576263487339,0.5617084387235343,0.4134872776329517
2024-12-04 22:02:21.461193200,0.355193115234375,0.5738327378898859,0.3860821149654686,0.8116556978419422
2024-12-04 22:02:21.471219200,0.36521923828125,1.248449909043312,0.4603706093609332,1.4191639108404517
2024-12-04 22:02:21.481246200,0.37524609375,1.4201625664889812,0.7513098040811718,2.057634832857549
2024-12-04 22:02:21.491272200,0.385272216796875,1.5631260993123053,1.038196508540213,2.6539532510608432
2024-12-04 22:02:21.501298200,0.395298095703125,1.5731079796224832,1.170693884667754,3.34816096560806
2024-12-04 22:02:21.511325400,0.405325439453125,1.443576175302267,1.4508371062159535,4.112224891191721
2024-12-04 22:02:21.521351400,0.415351318359375,1.332347504913807,1.796043459305167,4.846393444727361
2024-12-04 22:02:21.531378200,0.425378173828125,1.093436457464099,2.2080264698550103,5.487785514888167
2024-12-04 22:02:21.541404200,0.435404052734375,1.141471297314763,2.587921274487674,5.698340236425399
2024-12-04 22:02:21.551431200,0.44543115234375,1.0425742852330206,3.0629224667474624,5.574640206998587
2024-12-04 22:02:21.561457200,0.45545703125,0.1926367875307798,4.078318822197616,6.00123480348587
2024-12-04 22:02:21.571484400,0.465484375,-0.209878429710865,4.826795887070894,6.528357812649011
2024-12-04 22:02:21.581510400,0.475510498046875,0.381988562041521,4.462793648096919,7.099335161107778
2024-12-04 22:02:21.591536400,0.485536376953125,0.5033627788692713,3.865955882194638,7.579777667638659
2024-12-04 22:02:21.601563100,0.495563232421875,0.2117325331449508,3.571298689864576,7.193838322144746
2024-12-04 22:02:21.611589000,0.505589111328125,-0.0179565124511718,3.674540160891413,6.682445966076851
2024-12-04 22:02:21.621616400,0.515616455078125,0.0945236193031072,4.140093141326308,6.119889824482798
2024-12-04 22:02:21.631642000,0.52564208984375,0.6787362969100474,4.889766137985885,6.067149583420157
2024-12-04 22:02:21.641669400,0.53566943359375,1.8104364340558647,4.970478966340423,4.756297286477685
2024-12-04 22:02:21.651695400,0.5456953125,5.121677243545651,3.1333383574932814,0.2820850032657385
2024-12-04 22:02:21.661722000,0.55572216796875,6.2973144298344845,1.871127634122968,-0.2621960614472627
2024-12-04 22:02:21.671748000,0.565748046875,7.712057309362292,-0.0182765381857752,-0.4833966801613569
2024-12-04 22:02:21.681774000,0.575774169921875,6.609257980269193,-2.192789445495605,0.3657832771718501
2024-12-04 22:02:21.691801000,0.585801025390625,4.000851259374619,-2.5980884482368825,-0.2327618771702051
2024-12-04 22:02:21.701827300,0.595827392578125,-0.0613677841544151,0.4670682073034345,-0.2892114941447973
2024-12-04 22:02:21.711854300,0.605854248046875,-3.513460541141033,1.9058467730656263,0.5027811795890331
2024-12-04 22:02:21.721880300,0.61588037109375,-4.589498120036721,1.4641457928612829,0.9873726224929094
2024-12-04 22:02:21.731907000,0.625906982421875,-5.01416262524426,0.4565470324847847,1.2809288678437472
2024-12-04 22:02:21.741933000,0.63593310546875,-4.017305550569295,-0.3319599180251359,1.4760259080082176
2024-12-04 22:02:21.751960300,0.645960205078125,-2.6167460946947334,-1.3151233983904125,1.3588327762573955
2024-12-04 22:02:21.761986300,0.655986328125,-1.743112664106488,-2.150152373035252,1.3689713084340094
2024-12-04 22:02:21.772012300,0.66601220703125,-0.3802797122970223,-1.82203115639016,1.4807014986038207
2024-12-04 22:02:21.782039000,0.6760390625,0.8894429941385984,-0.8778783016163856,1.2120067227870226
2024-12-04 22:02:21.792065000,0.68606494140625,2.197148809748888,-0.6329556657269597,0.8246709544986486
2024-12-04 22:02:21.802092000,0.696092041015625,2.071381910920143,-1.3379472246170043,-0.4987912331700325
2024-12-04 22:02:21.812118300,0.7061181640625,2.105763780732453,-2.348039043918252,-1.2047124741256237
2024-12-04 22:02:21.822145300,0.716145263671875,2.269309790596366,-2.917167257378995,-1.0033236403405663
2024-12-04 22:02:21.832171300,0.726171142578125,1.6776441666349768,-2.7497937981814142,-0.6808622030228376
2024-12-04 22:02:21.842197200,0.736197265625,1.528094533419609,-1.7698051484599708,-1.221256781691313
2024-12-04 22:02:21.852224000,0.74622412109375,0.975983797994256,-0.3209080703958868,-1.8741326611578464
2024-12-04 22:02:21.862250000,0.75625,0.4667240700408816,0.3750812668710946,-2.408801847916841
2024-12-04 22:02:21.872277200,0.76627734375,0.961462520688772,0.5950014903858304,-2.5899481041401624
2024-12-04 22:02:21.882303200,0.77630322265625,1.2025059039920567,0.8135712491396814,-2.089101692005992
2024-12-04 22:02:21.892330200,0.786330322265625,0.9420148928970098,1.245502311284095,-1.4702800578325983
2024-12-04 22:02:21.902356200,0.796356201171875,0.3820411690115928,1.5461248417593538,-0.9174772484898568
2024-12-04 22:02:21.912383000,0.806383056640625,-0.2949696192800998,1.9094260928571225,-1.2091793904066086
2024-12-04 22:02:21.922409000,0.816408935546875,-0.2638333072602749,2.468411974748969,-0.9348702818393708
2024-12-04 22:02:21.932435200,0.826435302734375,0.0384200392872095,2.978243365110457,-0.1481692847728729
2024-12-04 22:02:21.942462200,0.836462158203125,0.0075163669794797,3.2315918109744786,0.4218348347395658
2024-12-04 22:02:21.952488200,0.84648828125,-0.475300467467308,3.388115374855697,0.2765899129807949
2024-12-04 22:02:21.962515200,0.85651513671875,-0.5241676664888858,3.32011151368767,-0.570298134022951
2024-12-04 22:02:21.972541200,0.866541259765625,-0.1239285774856805,3.148721512325108,-1.5175567727923391
2024-12-04 22:02:21.982568200,0.876568115234375,-0.0367617506861686,3.2339027182653544,-2.455498717162013
2024-12-04 22:02:21.992594200,0.88659423828125,-0.000177110132575,3.419678387854993,-3.221451525232196
2024-12-04 22:02:22.002621200,0.89662109375,-0.0600888502597808,3.361994552910328,-4.085414041155577
2024-12-04 22:02:22.012647200,0.906647216796875,0.0969406173169612,2.968072976490855,-4.893379360046983
2024-12-04 22:02:22.022673200,0.916673095703125,0.6315314781427384,2.875777846892178,-4.965736155727505
2024-12-04 22:02:22.032700200,0.9267001953125,0.96777009640038,2.967038957268,-4.758244913414121
2024-12-04 22:02:22.042726400,0.936726318359375,0.999559319370985,3.0524820290148256,-4.729022910583019
2024-12-04 22:02:22.052753200,0.946753173828125,0.7641188706412911,3.071462331555784,-4.5464860767841335
2024-12-04 22:02:22.062779100,0.956779052734375,0.4886263975083827,3.083216482235492,-4.229912528461218
2024-12-04 22:02:22.072806100,0.96680615234375,0.4380751909226179,2.829526967848837,-4.123163049313426
2024-12-04 22:02:22.082832100,0.97683203125,0.3290586436256766,2.751458516523242,-4.069623766827583
2024-12-04 22:02:22.092859400,0.986859375,0.4660644370883703,3.053378685593605,-4.586358652967214
2024-12-04 22:02:22.102885000,0.996885009765625,0.757149616150558,3.237475023794174,-5.395596476012468
2024-12-04 22:02:22.112911000,1.0069111328125,0.8893228748902678,3.019752310323715,-6.80074325967729
2024-12-04 22:02:22.122938000,1.016938232421875,1.5263158333092928,3.041269145604968,-8.204283192667365
2024-12-04 22:02:22.132964000,1.026964111328125,1.9376900643110275,2.9361066433876752,-8.289981700479984
2024-12-04 22:02:22.142991000,1.0369912109375,1.1227677658885715,2.758411404401064,-7.854516399794816
2024-12-04 22:02:22.153017300,1.047017333984375,0.5922130287110805,3.119531950458884,-5.845625139579177
2024-12-04 22:02:22.163044000,1.057044189453125,-0.159293905377388,2.8048388090550898,-3.448589717301726
2024-12-04 22:02:22.173070000,1.067070068359375,-1.300522626107931,1.7736463340580462,-1.4917483777970075
2024-12-04 22:02:22.183096000,1.077095947265625,-2.659657015660405,0.4649357253193855,0.4146101441830396
2024-12-04 22:02:22.193123000,1.087123046875,-3.992126685649157,-0.610317425200343,1.1986515666514634
2024-12-04 22:02:22.203149000,1.097149169921875,-4.752555761861801,-1.4883312628298997,1.627382006123662
2024-12-04 22:02:22.213176300,1.10717626953125,-4.651315401524305,-2.09796421289742,2.0274434004724022
2024-12-04 22:02:22.223202300,1.117202392578125,-5.110838454145193,-2.830122303393483,2.211922600510716
2024-12-04 22:02:22.233229000,1.12722900390625,-6.53554041762948,-3.9359091238647697,2.4937211880505084
2024-12-04 22:02:22.243255000,1.137255126953125,-8.121473392033577,-5.2556362166583535,1.7027707168459891
2024-12-04 22:02:22.253282000,1.147281982421875,-9.40640214316845,-6.16427432513237,0.8840852664977311
2024-12-04 22:02:22.263308300,1.157308349609375,-9.518680614870789,-6.497644694477319,0.6117068337321281
2024-12-04 22:02:22.273334300,1.167334228515625,-9.706077163660526,-6.758453685480355,0.814226132851839
2024-12-04 22:02:22.283361300,1.177361328125,-10.825401511096954,-6.797106949001551,2.404880875080824
2024-12-04 22:02:22.293387300,1.18738720703125,-11.971505144387482,-5.9737944233745335,5.498798491811752
2024-12-04 22:02:22.303414000,1.1974140625,-10.243652593255042,-4.3394513460665936,6.376199750500917
2024-12-04 22:02:22.313440000,1.20743994140625,-6.5808221593797205,-2.0059756650298834,8.315041322934627
2024-12-04 22:02:22.323467300,1.21746728515625,-3.1492543040275573,0.3332537572279572,6.079143972596526
2024-12-04 22:02:22.333493200,1.2274931640625,-0.069449456866458,1.71705526278615,3.961412398433685
2024-12-04 22:02:22.343519200,1.237519287109375,1.344424896198511,1.543204716528952,4.274079002445936
2024-12-04 22:02:22.353546200,1.247546142578125,-2.0355928046584126,-0.3961436363831162,3.279211640283465
2024-12-04 22:02:22.363572200,1.257572265625,-3.612310206949711,-2.1316630688816307,2.8415070362389088
2024-12-04 22:02:22.373599200,1.26759912109375,-3.068808894437552,-2.289363567587733,1.889501495203376
2024-12-04 22:02:22.383625200,1.277625244140625,-3.0261434726655483,-1.7870953059569,1.0096838230222462
2024-12-04 22:02:22.393652200,1.28765234375,-2.9116338809102773,-1.050793539784849,0.5257452910691499
2024-12-04 22:02:22.403678200,1.29767822265625,-3.15572203873694,-0.4499786869451403,0.4268851038664579
2024-12-04 22:02:22.413705200,1.307705322265625,-4.070826712876558,-0.4812301497772335,0.1557663157731294
2024-12-04 22:02:22.423731200,1.317731201171875,-5.139571212154626,-0.6032508478149772,-1.862495414856076
2024-12-04 22:02:22.433757200,1.327757080078125,-5.820605264613032,-0.7787503303229808,-4.732137243211269
2024-12-04 22:02:22.443784200,1.3377841796875,-6.662355364206433,-2.398552548842132,-7.4650120552957056
2024-12-04 22:02:22.453810200,1.34781005859375,-7.118868713617324,-3.844747382210195,-8.981452391278744
2024-12-04 22:02:22.463837200,1.357837158203125,-4.277790716445446,-2.582835641786456,-8.53195388906598
2024-12-04 22:02:22.473863200,1.36786328125,-4.042252360299229,-1.8793451351091264,-8.672942322424054
2024-12-04 22:02:22.483890200,1.37789013671875,-1.527641528955102,0.0173240597665309,-9.548056931480764
2024-12-04 22:02:22.493916200,1.387916259765625,-0.0695275636039674,0.9509270981490612,-10.184772534263134
2024-12-04 22:02:22.503943200,1.397943115234375,-0.3315241569563746,-0.4398875010415911,-9.273587663915754
2024-12-04 22:02:22.513969200,1.40796923828125,0.3587409574449062,-1.2200881763033569,-6.393599798113107
2024-12-04 22:02:22.523995100,1.4179951171875,0.5536415982544421,-0.9896883520893752,-3.2264661385238167
2024-12-04 22:02:22.534022100,1.428022216796875,0.2272691249728202,-0.8865136626884341,-1.4404051440507173
2024-12-04 22:02:22.544048000,1.438048095703125,0.6612684447586537,0.6233807587824761,-0.0540074845194816
2024-12-04 22:02:22.554075100,1.4480751953125,-0.6431202091276645,3.775868199512362,1.8082599667996169
2024-12-04 22:02:22.564101000,1.45810107421875,-2.607645673394203,5.859238069868088,3.252966022914648
2024-12-04 22:02:22.574128000,1.468128173828125,-1.944413819608092,6.05740911065042,4.0119834787637
2024-12-04 22:02:22.584154000,1.478154052734375,0.3191182643696665,0.2368773496650159,0.7504699922561645
2024-12-04 22:02:22.594180000,1.48818017578125,2.529857208053768,0.5048739140845835,-1.0014461560308934
2024-12-04 22:02:22.604207400,1.498207275390625,2.047842045378685,2.978624765643477,-1.453278654149175
2024-12-04 22:02:22.614233300,1.5082333984375,0.5053039760649204,6.598209347510338,-0.0624953268796205
2024-12-04 22:02:22.624259800,1.518259765625,-0.0408653866127133,8.573342715030908,1.413581434533
2024-12-04 22:02:22.634285800,1.528285888671875,0.6166515966579318,10.015020363235474,2.7600995036184788
2024-12-04 22:02:22.644313000,1.53831298828125,0.6408373588874936,10.704452241683006,2.713044906976819
2024-12-04 22:02:22.654339000,1.548339111328125,1.907651192139089,11.051330911898612,1.9509364993751048
2024-12-04 22:02:22.664366000,1.558365966796875,2.528028239060938,10.668269167667626,2.221974038925767
2024-12-04 22:02:22.674392000,1.56839208984375,2.7648724171087142,9.490664480698108,1.8375842609614133
2024-12-04 22:02:22.684418000,1.57841796875,3.89868326279819,8.22408094907105,1.6302181063324213
2024-12-04 22:02:22.694444800,1.58844482421875,3.33852892164886,7.6268275881052014,2.48957809689641
2024-12-04 22:02:22.704471000,1.598470947265625,1.9947902541488407,7.200547464394569,4.158659894630313
2024-12-04 22:02:22.714498000,1.608498046875,1.3091823179036377,6.516161178898811,4.863455930948257
2024-12-04 22:02:22.724524000,1.61852392578125,1.0932973412543534,5.728509749239683,4.4611499725431205
2024-12-04 22:02:22.734551000,1.628551025390625,1.713114416205883,4.87527437903583,2.578864984589815
2024-12-04 22:02:22.744577000,1.638576904296875,2.1073738462775946,3.6846032897442575,0.961184872791171
2024-12-04 22:02:22.754604000,1.64860400390625,2.93274038182497,2.6176599946692582,0.887424055531621
2024-12-04 22:02:22.764630000,1.658630126953125,2.125340880122781,1.2981383613198996,1.2521329814702271
2024-12-04 22:02:22.774656000,1.668656005859375,2.381879354199767,0.621490853382647,1.2516250319480895
2024-12-04 22:02:22.784683000,1.67868310546875,2.805693380057812,-1.3870400490880013,-0.5369722030043602
2024-12-04 22:02:22.794709000,1.688708984375,3.081644995135069,-3.4252544344216584,-3.0361534100264307
2024-12-04 22:02:22.804736000,1.698736083984375,2.134889045190811,-4.2899438033148645,-3.3097488173663616
2024-12-04 22:02:22.814762200,1.70876220703125,1.5857178703486918,-4.8211231021314855,-3.2209991052895783
2024-12-04 22:02:22.824789000,1.7187890625,1.0976087747126817,-5.799131683951616,-3.443579195663333
2024-12-04 22:02:22.834815000,1.72881494140625,3.4278155170813203,-3.976456530569493,-1.7863117543637752
2024-12-04 22:02:22.844841000,1.738841064453125,3.316668679757416,-3.766165720665455,-2.7953315605193376
2024-12-04 22:02:22.854868000,1.748867919921875,1.6431342865288256,-5.60943445700407,-3.5768455103367565
2024-12-04 22:02:22.864894000,1.75889404296875,0.2541150463223457,-7.871562227141856,-3.147387925633788
2024-12-04 22:02:22.874921000,1.7689208984375,-2.1042218119874594,-9.085665629947185,-1.9705852026969195
2024-12-04 22:02:22.884947000,1.778947021484375,-5.771219010153413,-8.948903289851545,-0.3139659961730242
2024-12-04 22:02:22.894974000,1.788973876953125,-7.985766113948822,-7.810863136029243,2.202138873121142
2024-12-04 22:02:22.905000000,1.799,-10.23692474630475,-6.873962809666991,4.989157947847247
2024-12-04 22:02:22.915027000,1.80902685546875,-11.203298419910668,-5.552576843750477,8.450257018110156
2024-12-04 22:02:22.925053200,1.81905322265625,-8.846519020175933,-4.144275395447016,9.763555539160969
2024-12-04 22:02:22.935079200,1.8290791015625,-6.963527345257997,-2.51047563123554,5.809007765799761
2024-12-04 22:02:22.945106000,1.83910595703125,-7.628664155882596,-0.610280308060348,0.3560042259573936
2024-12-04 22:02:22.955132000,1.8491318359375,-6.928194750592112,1.3928783998526633,-0.7283335637718439
2024-12-04 22:02:22.965159000,1.859158935546875,-6.454269663131237,1.209368775498867,-0.6776783122897148
2024-12-04 22:02:22.975185000,1.869184814453125,-5.349880434498191,-1.5924731898277995,-0.3775754217743873
2024-12-04 22:02:22.985212200,1.879212158203125,-4.894047468566894,-4.233162470167875,-0.0315209274232387
2024-12-04 22:02:22.995238100,1.889238037109375,-2.4907892262518403,-5.5617000614047045,-3.997372769609093
2024-12-04 22:02:23.005264100,1.89926416015625,0.0324959099352359,-5.944820842346549,-6.528501020511984
2024-12-04 22:02:23.015291000,1.909290771484375,-1.100161381804943,-2.994821574945748,-6.956054232898354
2024-12-04 22:02:23.025316900,1.91931689453125,4.704475329303741,1.316710667581856,-9.99570542191267
2024-12-04 22:02:23.035344100,1.92934423828125,9.81563994666338,2.527114923608303,-12.669313221514225
2024-12-04 22:02:23.045370000,1.9393701171875,14.270603924047949,4.785051087275147,-11.968194412404298
2024-12-04 22:02:23.055397000,1.949397216796875,14.933485649222137,6.263687470042705,-8.280750930798053
2024-12-04 22:02:23.065423000,1.959423095703125,13.422450971674918,6.031691316547989,-4.555476023447513
2024-12-04 22:02:23.075449900,1.969449951171875,10.036187069904804,5.383840571767092,-1.646932509768009
2024-12-04 22:02:23.085475800,1.979475830078125,6.35142654377222,4.675447972261906,0.816173175266385
2024-12-04 22:02:23.095501800,1.989501708984375,5.779439141488075,3.3188390095338223,2.1826468216657635
2024-12-04 22:02:23.105529000,1.999529052734375,5.738673415857553,2.9198934674724937,2.9171307247608897
2024-12-04 22:02:23.115555000,2.00955517578125,4.659710889425874,3.975510481891036,3.312621157932281
2024-12-04 22:02:23.125582000,2.01958203125,2.8917782568395136,4.519876886799931,3.436267411345243
2024-12-04 22:02:23.135608000,2.029608154296875,0.1731044040650129,4.179415682411194,3.380574750217795
2024-12-04 22:02:23.145635000,2.039635009765625,-3.1495377971440552,3.4109418314307924,3.2531817114919424
2024-12-04 22:02:23.155661000,2.0496611328125,-1.1444316084250807,1.0895838736891743,2.769703198266029
2024-12-04 22:02:23.165687000,2.05968701171875,-1.7101128963023424,-0.0140048522159457,2.5386902105897664
2024-12-04 22:02:23.175714000,2.069714111328125,-3.1925241214334963,-0.6422628616459667,3.987552801862359
2024-12-04 22:02:23.185740000,2.079739990234375,-4.7308080404341215,-1.4536099319301543,6.757779731741548
2024-12-04 22:02:23.195767000,2.08976708984375,-4.43315605020225,-0.7060100882828235,6.5119935378253455
2024-12-04 22:02:23.205793000,2.09979296875,-2.1274327378354965,0.517307717591524,2.969216885828972
2024-12-04 22:02:23.215820000,2.109820068359375,-0.5323400131590664,0.6392652872651815,1.6196142947316168
2024-12-04 22:02:23.225846000,2.119845947265625,-0.0384615403413772,-0.3993386330321431,-0.2769984937816858
2024-12-04 22:02:23.235873000,2.129873046875,-0.3034697365999221,-1.8151567405760287,-2.4977643259614704
2024-12-04 22:02:23.245899000,2.13989892578125,-1.0734650980591771,-3.205426565365493,-3.868005800461769
2024-12-04 22:02:23.255925000,2.149925048828125,-0.8813080568693578,-3.863218566185236,-3.6482507043808696
2024-12-04 22:02:23.265952000,2.159951904296875,-1.027865960922837,-3.96325977986604,-3.290861161544919
2024-12-04 22:02:23.275978000,2.16997802734375,-0.7321288644015789,-3.59519014532268,-2.8975469033688306
2024-12-04 22:02:23.286005000,2.1800048828125,-0.7763689881443977,-3.5178050000861285,-1.7404542585521936
2024-12-04 22:02:23.296031000,2.190031005859375,-0.7169524841882288,-3.767442608733475,-0.6987526645004749
2024-12-04 22:02:23.306058000,2.20005810546875,-0.3992730204500258,-3.490104799994826,0.3278261792212724
2024-12-04 22:02:23.316084000,2.210083984375,-0.6693424456208944,-2.424990473912656,1.980380620524287
2024-12-04 22:02:23.326111000,2.220111083984375,-0.2814659215193241,-0.7758394113123417,3.5651480582803488
2024-12-04 22:02:23.336137000,2.230136962890625,0.8657482302963733,0.2939443678855896,5.015900993344188
2024-12-04 22:02:23.346163000,2.240162841796875,1.7647662775099275,0.5612251852512359,6.25239509165585
2024-12-04 22:02:23.356190000,2.25018994140625,1.5688444769591092,1.0012778137266636,5.746555109018087
2024-12-04 22:02:23.366216000,2.2602158203125,1.8669746060967445,1.5924655910432337,4.204592209243774
2024-12-04 22:02:23.376243200,2.2702431640625,1.96620187304616,1.4478461077064275,3.043084670594334
2024-12-04 22:02:23.386269200,2.280269287109375,1.9633973370194435,2.336528054344654,2.5711744300872086
2024-12-04 22:02:23.396296000,2.2902958984375,1.6932079387307166,3.019304566556216,2.261424005782604
2024-12-04 22:02:23.406322000,2.300322021484375,0.054782560545206,2.3512749570995566,0.9912439109683036
2024-12-04 22:02:23.416349000,2.310348876953125,-2.2516636592686177,1.7758838838517663,-0.2867828056931495
2024-12-04 22:02:23.426375000,2.320375,-3.990207115763426,1.5149743550837038,-1.15904553245008
2024-12-04 22:02:23.436401200,2.330401123046875,-4.335992730045319,1.544836409384012,-1.461993291002512
2024-12-04 22:02:23.446428200,2.34042822265625,-4.601987599253654,1.9656313796818248,-1.642406556776166
2024-12-04 22:02:23.456454100,2.3504541015625,-4.843832362067699,1.417177413198352,-3.0493624356895683
2024-12-04 22:02:23.466481000,2.36048095703125,-2.8852210902810094,-0.1824438948184251,-4.535670083737373
2024-12-04 22:02:23.476507000,2.3705068359375,-0.7613479446232319,-1.6732886017739772,-5.7371665184259415
2024-12-04 22:02:23.486534100,2.3805341796875,-0.9615332478374242,-2.43933493334651,-7.200699440085888
2024-12-04 22:02:23.496560000,2.39056005859375,-1.701413457018137,-2.927980620077252,-8.397831834346055
2024-12-04 22:02:23.506586000,2.400586181640625,-1.3652040648549797,-4.372875476762652,-8.663746039533615
2024-12-04 22:02:23.516613000,2.410613037109375,-0.7091016245573759,-6.036955520686507,-7.96950588402152
2024-12-04 22:02:23.526639000,2.42063916015625,-1.1359200929284097,-6.41319530994296,-5.879959370857477
2024-12-04 22:02:23.536665900,2.430665771484375,-5.046386732500792,-4.748728312528133,-2.188738124278188
2024-12-04 22:02:23.546691800,2.44069189453125,-12.024474518030882,-1.65095928106606,2.5318349378675222
2024-12-04 22:02:23.556719000,2.450718994140625,-10.170442395615575,-0.7988315798431634,2.786419647528231
2024-12-04 22:02:23.566745000,2.4607451171875,-4.611876540583372,-1.6535510511249305,0.9614379707694052
2024-12-04 22:02:23.576772000,2.470772216796875,-3.458359416165948,-0.6244523335367441,1.037927920731902
2024-12-04 22:02:23.586798000,2.480798095703125,-2.1658758657373487,-1.2802753723710774,1.4332507422514258
2024-12-04 22:02:23.596823800,2.49082373046875,0.2702783917464316,-4.137949115034938,1.3006034362591803
2024-12-04 22:02:23.606851000,2.50085107421875,0.6208364811271428,-5.569028212335706,1.6269932990670204
2024-12-04 22:02:23.616877000,2.510876953125,-0.6604534751139581,-5.410374942949414,1.895354166754335
2024-12-04 22:02:23.626904000,2.520904052734375,-1.014887821406126,-4.803223872825504,2.706255977489054
2024-12-04 22:02:23.636930000,2.530929931640625,0.4212364304549992,-4.794063830292225,2.5774372898742555
2024-12-04 22:02:23.646957000,2.54095703125,3.320385946714878,-4.637061250722408,1.359126790767908
2024-12-04 22:02:23.656983000,2.550983154296875,3.577873099818825,-1.8166291512161488,1.775136134224385
2024-12-04 22:02:23.667009000,2.561009033203125,-4.394299373063445,17.39839692237377,11.30249178459048
2024-12-04 22:02:23.677036000,2.5710361328125,-7.29075614310801,35.62521567621231,14.176438616663216
2024-12-04 22:02:23.687062000,2.58106201171875,0.989447382940352,37.85444187822342,8.301135547178983
2024-12-04 22:02:23.697089000,2.591089111328125,2.041713333365321,36.27788814206123,3.213558141633868
2024-12-04 22:02:23.707115000,2.601114990234375,-2.719329101812839,27.304649452376363,-3.952459861171245
2024-12-04 22:02:23.717142000,2.61114208984375,-5.747758055067062,13.09500648524761,-10.264923344820737
2024-12-04 22:02:23.727168000,2.62116796875,-5.634304109844565,3.725024147459864,-10.806467678046223
2024-12-04 22:02:23.737195000,2.631195068359375,-4.176092967729271,0.1665162578463554,-5.439612143349647
2024-12-04 22:02:23.747221000,2.641220947265625,-1.4764698523834348,-1.4817968926250933,0.3308510434677824
2024-12-04 22:02:23.757247000,2.6512470703125,2.7074618461474773,-2.074213334953785,4.815746962051093
2024-12-04 22:02:23.767274200,2.661274169921875,5.290300702804327,-2.425258477199077,7.009796344479918
2024-12-04 22:02:23.777300200,2.67130029296875,6.183370070746541,-3.452867833012342,7.013887997707724
2024-12-04 22:02:23.787327000,2.681326904296875,6.644241615366935,-4.840619245240092,5.716593685996532
2024-12-04 22:02:23.797353000,2.69135302734375,6.583997282284498,-5.852125607514381,4.243598523986339
2024-12-04 22:02:23.807380000,2.7013798828125,6.256722891727089,-6.414665967017412,3.29540932636857
2024-12-04 22:02:23.817406000,2.711406005859375,5.71331510271728,-6.649433338791131,3.0588419194355607
2024-12-04 22:02:23.827433200,2.72143310546875,3.605773206396401,-6.4604427988082165,3.164722506794333
2024-12-04 22:02:23.837459200,2.731459228515625,0.4700122979313135,-5.649428613740206,2.8507661552324888
2024-12-04 22:02:23.847485200,2.741485107421875,0.9532365441352127,-4.589567093619704,1.7603128052324055
2024-12-04 22:02:23.857512000,2.751511962890625,3.1171856795936823,-3.675323420223594,0.7072453291662038
2024-12-04 22:02:23.867538000,2.761537841796875,4.777808276540041,-3.0024130529880524,0.3129113725535571
2024-12-04 22:02:23.877565200,2.771565185546875,5.972886076357961,-2.8108874415695664,0.2120890914976596
2024-12-04 22:02:23.887591200,2.781591064453125,6.441197415590286,-2.6987504241645333,0.539598459854722
2024-12-04 22:02:23.897618200,2.7916181640625,6.311208515152335,-2.5984604964196683,1.132294157516211
2024-12-04 22:02:23.907644200,2.80164404296875,6.572130318880081,-2.700132818433642,1.664468604850024
2024-12-04 22:02:23.917671000,2.8116708984375,7.076312012916803,-3.2149183240711685,2.0438902390129865
2024-12-04 22:02:23.927697000,2.82169677734375,6.949028864306211,-4.0975376096695655,2.197020945585519
2024-12-04 22:02:23.937723100,2.83172314453125,6.395722781616449,-5.235068644925952,2.2593623970776795
2024-12-04 22:02:23.947750100,2.841750244140625,5.84136689761281,-6.34344314380288,2.475097736123204
2024-12-04 22:02:23.957776100,2.851776123046875,4.914246791508794,-7.262592709419131,2.7787372763320803
2024-12-04 22:02:23.967803000,2.861802978515625,3.615755963489413,-8.011222626766562,2.791407080551982
2024-12-04 22:02:23.977828900,2.871828857421875,1.534347748595476,-8.447602704209089,2.0771116867437955
2024-12-04 22:02:23.987856100,2.881856201171875,-1.4671744930326938,-7.98123606930375,0.5596460993662477
2024-12-04 22:02:23.997882000,2.891882080078125,-4.819058570817113,-6.554606352627277,-1.1394706980820744
2024-12-04 22:02:24.007909000,2.9019091796875,-9.30240926925242,-4.2487949235856535,-3.1380992882847782
2024-12-04 22:02:24.017935000,2.91193505859375,-19.03719873265624,-0.7998229289680719,-5.016450443920493
2024-12-04 22:02:24.027961000,2.921961181640625,-23.503447489643097,3.5362674162328243,-4.855883157606423
2024-12-04 22:02:24.037987800,2.93198779296875,-11.606216372734307,7.511872006148099,-1.0139070667404682
2024-12-04 22:02:24.048014000,2.94201416015625,-2.3829268174260854,12.172142283022405,3.931891120395064
2024-12-04 22:02:24.058041000,2.952041015625,3.605772329613566,18.733942931067944,7.696139609262347
2024-12-04 22:02:24.068067000,2.962067138671875,6.142524265617132,21.25060660328865,10.87822709235549
2024-12-04 22:02:24.078094000,2.972093994140625,3.729205232536792,17.79237987359166,10.99236668175459
2024-12-04 22:02:24.088120000,2.9821201171875,-1.7232015104562044,7.70933694448769,5.4034337455093855
2024-12-04 22:02:24.098147000,2.99214697265625,-2.871803974825144,-0.4153501488953828,1.143095756711438
2024-12-04 22:02:24.108173000,3.002173095703125,1.733780187615752,-4.779367780941724,0.8057863674171268
2024-12-04 22:02:24.118199000,3.012198974609375,4.232569180449843,-7.416762111389636,1.0516367856759576
2024-12-04 22:02:24.128226000,3.02222607421875,6.468935317343473,-8.777694490274786,1.6512449661396442
2024-12-04 22:02:24.138252000,3.032251953125,10.341351919984817,-8.488930739897489,3.2129677745252847
2024-12-04 22:02:24.148279000,3.042279052734375,12.43804245968461,-6.741298552539944,4.847069444292783
2024-12-04 22:02:24.158305300,3.05230517578125,10.9774999520123,-4.319681646713614,6.977409155616164
2024-12-04 22:02:24.168332000,3.06233203125,8.775552217549086,-0.9138964673936366,7.749263296684623
2024-12-04 22:02:24.178358000,3.07235791015625,6.708417442679405,2.3596453105598685,6.262394507622719
2024-12-04 22:02:24.188385000,3.082385009765625,4.665094628290832,5.128752881020307,3.285120572066307
2024-12-04 22:02:24.198411000,3.092410888671875,3.4337504600882527,7.2340978518188,0.1843256169117987
2024-12-04 22:02:24.208437000,3.10243701171875,2.114232041609287,7.2037372003465885,-0.8613780523881316
2024-12-04 22:02:24.218464300,3.11246435546875,1.1377053689099847,6.018160219323635,0.2083824920646846
2024-12-04 22:02:24.228490200,3.122490234375,-0.8125742739915848,6.25444676348865,0.818791175745055
2024-12-04 22:02:24.238517000,3.13251708984375,-3.051489510846138,5.880210715270042,0.5470294866383075
2024-12-04 22:02:24.248543000,3.14254296875,-2.895714427244663,3.955094885849952,-0.2019149948173202
2024-12-04 22:02:24.258570000,3.152570068359375,-2.1599112582445144,2.717333544081449,-0.7564429291859268
2024-12-04 22:02:24.268596000,3.162595947265625,-2.168518927592039,1.3554308588594195,-1.6611426752977072
2024-12-04 22:02:24.278622200,3.172622314453125,-1.9595073438435795,0.4528501507282257,-2.530914900413156
2024-12-04 22:02:24.288649000,3.18264892578125,-1.7138590970933436,-0.2479302202075719,-3.354709364338219
2024-12-04 22:02:24.298675000,3.192675048828125,-1.3843208532571791,-1.2621452569186686,-4.320860042843222
2024-12-04 22:02:24.308702000,3.202701904296875,-0.6387783074658364,-1.7514876937419177,-4.836967444734275
2024-12-04 22:02:24.318728000,3.21272802734375,-0.3222165957111865,-1.729842848166823,-5.258590974810719
2024-12-04 22:02:24.328755200,3.222755126953125,-0.1296557229608297,-1.2425848164021969,-5.725445100972056
2024-12-04 22:02:24.338781200,3.23278125,0.1421428640902042,-1.129083524906635,-5.848452471959591
2024-12-04 22:02:24.348808000,3.242807861328125,0.2307014375090599,-1.5684306354612112,-5.561031368362904
2024-12-04 22:02:24.358834000,3.252833984375,0.7708055087983607,-2.29755739543736,-4.8659164758428926
2024-12-04 22:02:24.368860000,3.26285986328125,1.485699745282531,-3.1201439448773858,-3.85746628626883
2024-12-04 22:02:24.378887000,3.272886962890625,2.0552841780781743,-3.98354064361155,-2.7823379311725494
2024-12-04 22:02:24.388913200,3.2829130859375,2.0100912836551665,-4.561110814464092,-1.8786713275007905
2024-12-04 22:02:24.398940200,3.292940185546875,1.3687293163716792,-4.606104971444607,-1.2177395673505962
2024-12-04 22:02:24.408966100,3.302966064453125,1.0580056631207466,-4.204484657216072,-0.6850874195024371
2024-12-04 22:02:24.418993000,3.312992919921875,1.1843909861087798,-3.876118379768729,-0.2999803601142018
2024-12-04 22:02:24.429019000,3.323018798828125,1.2786299432516095,-3.595759469643235,-0.0856591256503015
2024-12-04 22:02:24.439046100,3.333046142578125,0.8446386606417596,-3.370483564314246,-0.1889649671502411
2024-12-04 22:02:24.449072000,3.343072021484375,0.5356185233730822,-3.0204414616316555,-0.3525710366383194
2024-12-04 22:02:24.459098000,3.35309814453125,0.5801181748349219,-2.4966227547109128,-0.1400538559217005
2024-12-04 22:02:24.469125000,3.363125,0.8141243529777974,-1.7411755585640667,0.4198290478751063
2024-12-04 22:02:24.479151000,3.373151123046875,0.6648563862480222,-1.0012690458983182,1.0239910922508686
2024-12-04 22:02:24.489177900,3.383177734375,-0.4064868973515927,-0.3675637308478355,1.2792156341850758
2024-12-04 22:02:24.499204000,3.3932041015625,-1.8498561519049104,0.3347738064020872,1.4975424510285258
2024-12-04 22:02:24.509231000,3.403231201171875,-3.2343072074130177,1.351493519410491,2.174867419835925
2024-12-04 22:02:24.519257000,3.413257080078125,-5.22205426505208,2.297035417389869,2.665019127215445
2024-12-04 22:02:24.529284000,3.4232841796875,-7.8171701272189615,3.0456115587234494,2.727120778602361
2024-12-04 22:02:24.539310000,3.43331005859375,-9.807179576832056,3.68941039776504,2.196639106661081
2024-12-04 22:02:24.549336000,3.443336181640625,-10.479032543969154,4.7461108235061165,1.2881781083196402
2024-12-04 22:02:24.559363000,3.453363037109375,-9.52796282247901,5.833707322770357,-0.1407175805274397
2024-12-04 22:02:24.569389000,3.46338916015625,-7.152052021294832,6.277066591575742,-1.504591492757201
2024-12-04 22:02:24.579416000,3.473416015625,-4.7804549916565415,5.885295471188425,-2.5107296059966084
2024-12-04 22:02:24.589442000,3.483442138671875,-3.492805875647068,5.775832056906819,-3.483566338136792
2024-12-04 22:02:24.599469000,3.493468994140625,-2.219623676407337,6.143675773739814,-4.329047440952063
2024-12-04 22:02:24.609495000,3.5034951171875,-1.4515537300527095,6.253189456903934,-5.1154269509792325
2024-12-04 22:02:24.619522000,3.51352197265625,-1.4037363323450087,6.250214825007319,-5.979412263256311
2024-12-04 22:02:24.629548000,3.523548095703125,-2.000224261896312,6.469116519129276,-6.492634172838926
2024-12-04 22:02:24.639574000,3.533573974609375,-2.3474115596696734,7.001816451641917,-7.150391979128122
2024-12-04 22:02:24.649601300,3.543601318359375,-2.5907351628646254,7.875681352898478,-8.152198200643062
2024-12-04 22:02:24.659627300,3.553627197265625,-4.129654164898395,8.450042498576641,-9.132582863944767
2024-12-04 22:02:24.669654000,3.563654052734375,-7.854860683187842,7.400764331790804,-8.674941971808671
2024-12-04 22:02:24.679680000,3.573679931640625,-11.43295356323719,5.648446032443642,-6.4387155356466765
2024-12-04 22:02:24.689707000,3.58370703125,-11.89599660667777,4.742278113475441,-4.193784399503469
2024-12-04 22:02:24.699733000,3.59373291015625,-9.924716407454014,4.607250634348392,-2.0246366724886
2024-12-04 22:02:24.709760300,3.60376025390625,-7.23646633451581,4.908991355198621,-0.0003740209441632
2024-12-04 22:02:24.719786200,3.6137861328125,-3.5687796927809714,4.978608496782184,1.5512638120830058
2024-12-04 22:02:24.729812200,3.623812255859375,0.4790981061846017,4.829308162152767,2.6572315420791504
2024-12-04 22:02:24.739839000,3.6338388671875,4.9349686770200725,4.392358175867796,2.8508541257768867
2024-12-04 22:02:24.749865000,3.643864990234375,8.301172372058033,3.676252810028195,2.7154236188068985
2024-12-04 22:02:24.759892200,3.653892333984375,9.600805940371751,3.4074919832378625,3.130010382114351
2024-12-04 22:02:24.769918200,3.663918212890625,9.339143547409773,3.5666187153548,3.399050902628898
2024-12-04 22:02:24.779945200,3.6739453125,8.294313007682561,4.071141770175099,4.127249441844224
2024-12-04 22:02:24.789971200,3.68397119140625,7.519064548000693,4.156357462906837,5.147330155718326
2024-12-04 22:02:24.799998000,3.693998046875,6.019276656132936,3.902427125501633,5.146200274905562
2024-12-04 22:02:24.810024000,3.70402392578125,3.0858138052523136,3.52129839515984,4.323702865053713
2024-12-04 22:02:24.820050200,3.71405029296875,-0.0585401595130562,2.789725411075353,3.3774706467226148
2024-12-04 22:02:24.830077200,3.7240771484375,-1.6320812698557972,2.199921781593561,2.796216526660323
2024-12-04 22:02:24.840103200,3.734103271484375,-1.4070330358028411,1.5740806240469216,2.2823262162968514
2024-12-04 22:02:24.850130200,3.744130126953125,-0.0818386175140738,0.860661136290431,2.5170810208499432
2024-12-04 22:02:24.860156200,3.75415625,2.0584394272387025,0.0698188016355037,2.967085134497285
2024-12-04 22:02:24.870183200,3.76418310546875,4.031987571394443,-0.9559130698680876,2.7702345286637544
2024-12-04 22:02:24.880209200,3.774209228515625,4.869178984770178,-1.5481892269432544,2.630671451933682
2024-12-04 22:02:24.890236200,3.784236083984375,4.694754145756364,-2.170710300156474,2.385919423370808
2024-12-04 22:02:24.900262100,3.79426220703125,5.635524007028341,-2.942327709859609,2.6496429866462945
2024-12-04 22:02:24.910288100,3.8042880859375,5.624584679862856,-3.287381502735615,1.98128414523527
2024-12-04 22:02:24.920315100,3.814315185546875,3.9599943483293054,-3.738141403186321,0.4965082367993891
2024-12-04 22:02:24.930341000,3.824341064453125,3.3077585203319786,-3.5556443168759344,0.2868951800264418
2024-12-04 22:02:24.940368100,3.8343681640625,3.867300282540917,-3.08639774262011,1.1934152734331789
2024-12-04 22:02:24.950394000,3.84439404296875,4.6657244506269695,-2.939847583481669,1.8609174980148675
2024-12-04 22:02:24.960421000,3.854421142578125,5.901207910591364,-3.172383835202455,2.114241393959522
2024-12-04 22:02:24.970447000,3.864447021484375,7.039915588411688,-3.726455057045817,2.3839064761132
2024-12-04 22:02:24.980474000,3.87447412109375,7.987181241443753,-4.241548021197318,2.5855741268396377
2024-12-04 22:02:24.990500000,3.8845,8.72087837807536,-4.629036934220791,3.071980217950046
2024-12-04 22:02:25.000526000,3.894526123046875,9.395110349303485,-5.138602074861526,3.641905134746432
2024-12-04 22:02:25.010553000,3.904552978515625,9.412114675596357,-6.005068098038435,4.045762998768687
2024-12-04 22:02:25.020579000,3.9145791015625,8.61242910927236,-7.003687506210803,4.865917352625727
2024-12-04 22:02:25.030606000,3.924606201171875,7.679595301696658,-7.966160665246844,5.547614252907038
2024-12-04 22:02:25.040632300,3.93463232421875,6.587315613052248,-8.74449247789681,5.864428039726614
2024-12-04 22:02:25.050659000,3.9446591796875,5.4138528481930495,-8.951379324576259,6.523387623021006
2024-12-04 22:02:25.060685000,3.95468505859375,4.29233011392951,-8.359822713947295,6.31313860643208
2024-12-04 22:02:25.070712000,3.964712158203125,2.452434653416276,-7.247405077159405,3.720086398796737
2024-12-04 22:02:25.080738000,3.974738037109375,-1.3523410761505366,-5.903618478864432,1.3290982938595115
2024-12-04 22:02:25.090764000,3.984763916015625,-5.782468133920431,-4.1636078724265095,-1.2996993270263075
2024-12-04 22:02:25.100791300,3.994791259765625,-9.549663197633624,-1.9703975711703297,-4.38074898661673
2024-12-04 22:02:25.110817300,4.0048173828125,-15.417316629147528,1.025298156261444,-8.048828427061439
2024-12-04 22:02:25.120844000,4.014843994140625,-21.450933945322035,6.138287650960684,-8.76908974353671
2024-12-04 22:02:25.130870000,4.0248701171875,-15.524489886665345,12.213503051936623,-3.963959744828939
2024-12-04 22:02:25.140897000,4.03489697265625,-2.071877877743542,14.136158044201135,-0.3502324376229196
2024-12-04 22:02:25.150923300,4.04492333984375,3.641919747793674,12.295595644211769,-1.02673710302338
2024-12-04 22:02:25.160950300,4.0549501953125,4.957490305429697,10.236287617444992,-0.944169586712867
2024-12-04 22:02:25.170976300,4.064976318359375,4.651885310366749,10.222819064062833,4.296192634576559
2024-12-04 22:02:25.181002200,4.075002197265625,1.9398647780016065,10.27114616485834,11.103138256025314
2024-12-04 22:02:25.191029000,4.085029052734375,-6.37803982540965,6.977847547033429,12.14734452637434
2024-12-04 22:02:25.201055000,4.095054931640625,-15.030632018244264,3.667871935173869,5.202693146499991
2024-12-04 22:02:25.211082200,4.105082275390625,-1.9814032415702936,1.4030577024310826,-0.022971125742793
2024-12-04 22:02:25.221108200,4.115108154296875,10.27495023331642,-1.0773679507166147,0.2864532814778387
2024-12-04 22:02:25.231135200,4.12513525390625,11.303491317021846,-3.4221137983083723,1.9124452945478256
2024-12-04 22:02:25.241161200,4.1351611328125,8.762995518314838,-4.726607666134834,3.932445247146487
2024-12-04 22:02:25.251188000,4.14518798828125,7.841779667818546,-5.407153058293462,5.624788093480468
2024-12-04 22:02:25.261214000,4.1552138671875,7.655394926419854,-5.996720540931821,7.580537546095251
2024-12-04 22:02:25.271240200,4.165240234375,6.664401775342226,-4.913815998876094,9.055528850358725
2024-12-04 22:02:25.281267200,4.17526708984375,6.213073135092854,-2.0194670147657394,8.982677549159526
2024-12-04 22:02:25.291293200,4.185293212890625,5.498314507687091,0.664686144247651,7.952759916403889
2024-12-04 22:02:25.301320200,4.1953203125,4.171023701640963,2.9794331594169137,5.914200078633427
2024-12-04 22:02:25.311346200,4.20534619140625,2.4416046318441627,5.301778959152102,2.475584058335423
2024-12-04 22:02:25.321373200,4.215373291015625,1.0118728574991225,7.11639560150206,-0.7437148189075291
2024-12-04 22:02:25.331399200,4.225399169921875,0.5711550431132316,6.501310231247544,-0.0354235608849674
2024-12-04 22:02:25.341426200,4.23542626953125,0.5961135432809591,6.310803441482782,0.4649465755069628
2024-12-04 22:02:25.351452200,4.2454521484375,-0.488265016850084,6.255310686841606,-0.0139685570598579
2024-12-04 22:02:25.361478100,4.25547802734375,-1.1102939226321875,5.002901811039448,-0.7462986248556525
2024-12-04 22:02:25.371505000,4.2655048828125,-1.0373679487615823,2.9519805043458938,-1.4817432627417146
2024-12-04 22:02:25.381531100,4.27553125,-1.0844120240092276,1.0766086567819118,-2.122601372156292
2024-12-04 22:02:25.391558100,4.28555810546875,-0.9806803583126514,-0.326161460879445,-2.562568514305353
2024-12-04 22:02:25.401584000,4.295584228515625,-0.7740214751701802,-1.3624544738858937,-3.026255408607423
2024-12-04 22:02:25.411611100,4.305611083984375,-0.617083850595355,-2.437228900977969,-3.7881604025915263
2024-12-04 22:02:25.421637000,4.31563720703125,-0.6240408301264048,-3.198572753947973,-4.773551203617453
2024-12-04 22:02:25.431664000,4.3256640625,-0.5313333203345537,-3.089854020553827,-5.699229878741503
2024-12-04 22:02:25.441690000,4.335690185546875,-0.4647212057858705,-2.676388370230794,-6.055127721714973
2024-12-04 22:02:25.451716000,4.345716064453125,-0.673477937990427,-2.365254382613301,-5.979312310013174
2024-12-04 22:02:25.461743000,4.3557431640625,-0.8264566688716412,-2.038627057787776,-5.625626297870278
2024-12-04 22:02:25.471769000,4.36576904296875,-0.687418785059452,-1.9180863691747188,-5.16634699087739
2024-12-04 22:02:25.481796000,4.375796142578125,-0.2305412602449767,-2.042737415716052,-4.55430814871192
2024-12-04 22:02:25.491822300,4.385822265625,0.0691325912033207,-2.5128590192407367,-3.783252172283828
2024-12-04 22:02:25.501849000,4.39584912109375,-0.1389911585936322,-3.1618834839761254,-3.091792295140028
2024-12-04 22:02:25.511875000,4.405875,-0.3752770817041397,-3.354336731633544,-2.372969194774329
2024-12-04 22:02:25.521902000,4.415902099609375,-0.3169815811345353,-3.0790999868273734,-1.379835816797614
2024-12-04 22:02:25.531928000,4.425927978515625,-0.1845568683844059,-2.910710920846462,-0.1180078821998089
2024-12-04 22:02:25.541954000,4.4359541015625,-0.2705049670439213,-2.796362072610855,0.9336718658350408
2024-12-04 22:02:25.551981300,4.445981201171875,-0.4467734611630439,-2.553708331501484,1.515071385717392
2024-12-04 22:02:25.562007300,4.45600732421875,-0.5139175636965782,-1.885589874717593,1.6424312528260052
2024-12-04 22:02:25.572034000,4.466033935546875,-0.6273966433603316,-0.9079559714287518,1.737140896220505
2024-12-04 22:02:25.582060000,4.47606005859375,-0.8237119002081453,-0.2208218485295772,1.5581263913288712
2024-12-04 22:02:25.592087000,4.486087158203125,-1.172619738163799,0.2876695253998041,1.0660257418386638
2024-12-04 22:02:25.602113300,4.49611328125,-1.4893300646089016,1.2022095513939857,0.5075866071093827
2024-12-04 22:02:25.612140300,4.506140380859375,-1.9449452961362896,2.510042208254337,0.197752961500734
2024-12-04 22:02:25.622166300,4.516166259765625,-2.858042868237197,3.643763329833746,-0.3003828765004873
2024-12-04 22:02:25.632191500,4.52619140625,-3.9020740742802618,4.452203280499577,-1.1793370637200773
2024-12-04 22:02:25.642218200,4.53621826171875,-5.055751942217349,5.0358530635267496,-2.557809337079525
2024-12-04 22:02:25.652244200,4.546244140625,-6.292793153017759,5.4567672762900585,-4.380826435767114
2024-12-04 22:02:25.662271500,4.556271484375,-7.218009471327066,5.651624662479758,-6.262859787046909
2024-12-04 22:02:25.672297500,4.56629736328125,-7.679692332330346,5.761227777493,-7.3988985379189245
2024-12-04 22:02:25.682324500,4.576324462890625,-7.6967399132430545,6.039976329812407,-7.252382865571975
2024-12-04 22:02:25.692350500,4.5863505859375,-6.6874027117013926,6.276483238729834,-6.92868399541378
2024-12-04 22:02:25.702377200,4.596377197265625,-5.456294982603192,6.109632634362578,-6.756292123532295
2024-12-04 22:02:25.712403500,4.606403564453125,-4.831529345333576,5.746725789409876,-6.304295374763012
2024-12-04 22:02:25.722429400,4.616429443359375,-4.0340789907157415,6.733062054592371,-6.678644235706329
2024-12-04 22:02:25.732456400,4.62645654296875,-3.5477871736347675,7.954487763109802,-7.375593065655231
2024-12-04 22:02:25.742482400,4.636482421875,-4.736878884780407,7.811420185390114,-6.785252260556817
2024-12-04 22:02:25.752509400,4.646509521484375,-7.634107223719358,6.694528033536672,-4.303380500254034
2024-12-04 22:02:25.762535400,4.656535400390625,-10.228681818616389,5.879470710557698,-1.614751657131314
2024-12-04 22:02:25.772562400,4.6665625,-11.30010693528056,5.410267975443602,0.3811635824594646
2024-12-04 22:02:25.782588400,4.67658837890625,-9.216043237441776,5.370563741564751,1.790388794544339
2024-12-04 22:02:25.792615400,4.686615478515625,-4.742492048487067,5.440310062485933,2.65342747362107
2024-12-04 22:02:25.802641400,4.696641357421875,0.0851140224555507,5.325308303299546,3.1582804910480973
2024-12-04 22:02:25.812667400,4.70666748046875,3.7318759130507706,5.223333783468604,3.460094861656428
2024-12-04 22:02:25.822694700,4.716694580078125,6.298568229287862,5.139321036785841,3.449073116904497
2024-12-04 22:02:25.832720600,4.726720703125,7.223001872786879,4.468996594390273,3.07218684643805
2024-12-04 22:02:25.842747400,4.736747314453125,7.078821365389228,3.7619945724606514,2.4777143483623862
2024-12-04 22:02:25.852773400,4.7467734375,6.929457902395725,3.4074697714060544,2.786016911946237
2024-12-04 22:02:25.862800400,4.75680029296875,6.759442696517706,3.039424394521117,3.1249133512362834
2024-12-04 22:02:25.872826400,4.766826416015625,6.185541569566726,3.142688369640708,2.981235824924707
2024-12-04 22:02:25.882853600,4.776853515625,4.83802981326878,3.58096112896204,2.824478744548559
2024-12-04 22:02:25.892879400,4.78687939453125,2.7546616964787245,3.83256916089952,3.060816142117977
2024-12-04 22:02:25.902905300,4.7969052734375,0.4808829437747597,4.077290940454602,4.018449167646468
2024-12-04 22:02:25.912932400,4.806932373046875,-0.2431853637680411,3.950599327996373,5.2742064770936965
2024-12-04 22:02:25.922958300,4.816958251953125,1.0978183258101344,3.4240158325374126,6.4601446926444765
2024-12-04 22:02:25.932985600,4.826985595703125,3.2201202766284345,2.5565000080466267,6.98435386018753
2024-12-04 22:02:25.943011600,4.837011474609375,4.713769227349758,1.1113432855546477,6.615835605093836
2024-12-04 22:02:25.953038300,4.847038330078125,6.091169341433048,-0.5191086295336484,5.906918104931711
2024-12-04 22:02:25.963064300,4.857064208984375,6.298910174593329,-2.2237930710464715,3.988938703262806
2024-12-04 22:02:25.973091300,4.86709130859375,6.822672767412662,-3.329730113643408,2.4998306108415127
2024-12-04 22:02:25.983117300,4.877117431640625,7.414471954625845,-3.79668653113544,1.5788221194855867
2024-12-04 22:02:25.993143300,4.887143310546875,6.567336070340872,-4.214553631287813,0.350661257494241
2024-12-04 22:02:26.003170600,4.897170654296875,4.6451229766249655,-4.570991572487354,-0.4184869856163859
2024-12-04 22:02:26.013196500,4.907196533203125,2.137232685707509,-4.502302651664614,-0.743449299839139
2024-12-04 22:02:26.023223300,4.917223388671875,3.699758773300052,-4.305705143809318,-0.3758329620212316
2024-12-04 22:02:26.033249300,4.927249267578125,6.869284880983829,-4.305656043970584,0.0575685380019247
2024-12-04 22:02:26.043276300,4.9372763671875,9.22616598752737,-4.526516470944881,-0.1728914919666946
2024-12-04 22:02:26.053302500,4.947302490234375,10.531778630250692,-5.0371711603879925,0.0100306878879666
2024-12-04 22:02:26.063329500,4.95732958984375,10.718851353913545,-5.65721678339839,0.9931145271457732
2024-12-04 22:02:26.073355500,4.96735546875,10.149235941457748,-6.313569399064779,2.310661061029881
2024-12-04 22:02:26.083381500,4.977381591796875,9.398197793924808,-7.026754493543505,3.74797247684896
2024-12-04 22:02:26.093408300,4.987408203125,8.659383752670884,-7.534818581971526,5.363223315674066
2024-12-04 22:02:26.103434200,4.997434326171875,7.554726813012361,-7.823789837619662,7.253182491517067
2024-12-04 22:02:26.113461500,5.00746142578125,6.462723018699884,-8.218114149621128,7.992914816659688
2024-12-04 22:02:26.123487500,5.017487548828125,6.130490713474154,-7.981701348727941,4.887216161242127
2024-12-04 22:02:26.133514500,5.027514404296875,4.907487964898348,-7.082908926963806,1.2229790754392742
2024-12-04 22:02:26.143540500,5.03754052734375,2.001484783351421,-5.805215387779474,-0.3344350759670138
2024-12-04 22:02:26.153567200,5.047567138671875,-1.8958482338815927,-3.74282517708838,-0.9058819416336714
2024-12-04 22:02:26.163593500,5.057593505859375,-7.323236270952225,-1.068178097566962,-1.7732533892177045
2024-12-04 22:02:26.173619500,5.067619384765625,-16.458222688907384,2.762843249368668,-4.564252619621158
2024-12-04 22:02:26.183646500,5.077646484375,-24.26341245547533,9.607491701745989,-6.20681582826376
2024-12-04 22:02:26.193672400,5.08767236328125,-12.636526219677924,17.316091564130783,-0.6000285247676074
2024-12-04 22:02:26.203699500,5.097699462890625,-0.565643293954432,20.3822782933712,3.7566374293416738
2024-12-04 22:02:26.213725400,5.107725341796875,1.0410597890168427,17.68540067734122,1.0355326961584388
2024-12-04 22:02:26.223752400,5.11775244140625,-0.9686305126219988,12.06541209309697,-2.091932239256799
2024-12-04 22:02:26.233778400,5.1277783203125,-4.002639604096115,7.389954768484831,0.5998349018916488
2024-12-04 22:02:26.243805400,5.137805419921875,-6.569770019489527,4.072953203511238,4.469664118388295
2024-12-04 22:02:26.253831400,5.14783154296875,-5.257790179821849,1.0392477711588144,6.040012570169568
2024-12-04 22:02:26.263857400,5.157857421875,0.9891033918082712,-2.345331538525224,5.659643718284368
2024-12-04 22:02:26.273884400,5.167884521484375,6.724567197969556,-4.738901915040612,4.299837713080644
2024-12-04 22:02:26.283910400,5.177910400390625,6.445232954716682,-4.072385632756352,3.595076748076081
2024-12-04 22:02:26.293937400,5.1879375,5.335961214739084,-3.0062001703113315,2.7635481827676296
2024-12-04 22:02:26.303963400,5.19796337890625,6.495705250847339,-3.107854956668615,2.34799125925377
2024-12-04 22:02:26.313990400,5.207990478515625,7.146876664483547,-3.4436353097647427,2.983852729424834
2024-12-04 22:02:26.324016400,5.218016357421875,5.959530335700512,-3.6444232550472018,3.664260174417496
2024-12-04 22:02:26.334043400,5.22804345703125,4.152592849676311,-3.483033838695288,3.962959335614741
2024-12-04 22:02:26.344069400,5.2380693359375,2.6581360897034405,-2.684835880580544,4.208585662794113
2024-12-04 22:02:26.354095400,5.248095458984375,1.6949962834522128,-1.0320137282520532,3.862272517506778
2024-12-04 22:02:26.364122400,5.258122314453125,1.748488658056408,1.0911047996461392,2.628189279729128
2024-12-04 22:02:26.374148400,5.2681484375,2.0307851121157405,3.3202170198887586,0.931657311142236
2024-12-04 22:02:26.384175600,5.278175537109375,1.0321376468926668,5.768689783936739,-0.1711890719629824
2024-12-04 22:02:26.394201600,5.28820166015625,-0.2945717060036957,6.719374890023469,-0.0171123897772282
2024-12-04 22:02:26.404228400,5.298228271484375,-0.3949300228096544,6.122010469898581,0.5620595171835273
2024-12-04 22:02:26.414254300,5.30825439453125,-0.2273556342124938,5.002896550342441,0.4990427602456882
2024-12-04 22:02:26.424281300,5.31828125,-0.267069658832997,3.206077430489659,0.1350062902085483
2024-12-04 22:02:26.434307300,5.328307373046875,-0.296015621201694,1.1947943067014215,-0.2806344756638631
2024-12-04 22:02:26.444333300,5.338333251953125,-0.3930091377496719,-0.3547451658070087,-0.6820646376151591
2024-12-04 22:02:26.454360600,5.348360595703125,-0.370892729140073,-1.4277473225295545,-1.020741077478975
2024-12-04 22:02:26.464386600,5.358386474609375,-0.2079717193067073,-2.064559371423721,-1.3128311958000063
2024-12-04 22:02:26.474413300,5.368413330078125,0.06958323931396,-2.2489830418825147,-1.528896935843676
2024-12-04 22:02:26.484439300,5.378439208984375,0.2309703175783157,-2.2305168263435364,-1.7308100857637825
2024-12-04 22:02:26.494466600,5.388466552734375,0.3650830199480056,-2.132061712810397,-1.8536571516230704
2024-12-04 22:02:26.504492500,5.398492431640625,0.807987530723214,-1.9051228427052496,-2.081156578220427
2024-12-04 22:02:26.514519600,5.40851953125,1.2491262008696793,-1.4227929149925709,-2.178846260339021
2024-12-04 22:02:26.524545500,5.418545654296875,1.55330730060935,-0.9592559505552052,-2.3248896389991045
2024-12-04 22:02:26.534571500,5.428571533203125,1.6013602606385946,-0.520629555490613,-2.712498963531852
2024-12-04 22:02:26.544598300,5.438598388671875,1.6731272737324236,-0.405532519236207,-2.7569290568888185
2024-12-04 22:02:26.554624300,5.448624267578125,1.448209095799923,-0.8170300843566656,-2.717830387687683
2024-12-04 22:02:26.564651500,5.458651611328125,0.826768219038844,-1.4597902280002832,-2.429012715166062
2024-12-04 22:02:26.574677500,5.468677490234375,0.2440899113923311,-1.880665277796984,-1.948096015252173
2024-12-04 22:02:26.584704500,5.47870458984375,0.0745616122484207,-2.164193465608358,-1.4988884588100015
2024-12-04 22:02:26.594730500,5.48873046875,0.3700514925429597,-2.7575989189743995,-1.2507555556371808
2024-12-04 22:02:26.604757200,5.49875732421875,0.4513573183545842,-3.179477008333802,-0.6994466381140053
2024-12-04 22:02:26.614783500,5.508783447265625,0.4332195675849914,-3.254396347978711,-0.0938886093351989
2024-12-04 22:02:26.624809500,5.5188095703125,0.4289315150022506,-3.2074341057956217,0.1528402722585946
2024-12-04 22:02:26.634837000,5.5288369140625,0.205902584882453,-2.94504982829988,0.4285124858725815
2024-12-04 22:02:26.644863000,5.538863037109375,-0.2471159812152385,-2.4083815766781567,0.4208521803777664
2024-12-04 22:02:26.654889700,5.5488896484375,-0.8280746254622936,-1.5984008263111114,0.1146472466602921
2024-12-04 22:02:26.664915700,5.558915771484375,-1.241953386630863,-0.750700293880701,-0.0089436963688582
2024-12-04 22:02:26.674942700,5.568942626953125,-1.780632393553108,0.2362836215555668,0.0879934138167649
2024-12-04 22:02:26.684968700,5.57896875,-2.511950087702274,1.331528589746356,0.1435205091189593
2024-12-04 22:02:26.694994700,5.58899462890625,-3.403851288647949,2.2973580734729766,0.01232756665349
2024-12-04 22:02:26.705022000,5.59902197265625,-4.560228186410665,3.1053181316673752,-0.2863083200491965
2024-12-04 22:02:26.715048000,5.6090478515625,-6.148731888085603,3.8203760342806574,-0.7641223777726293
2024-12-04 22:02:26.725074700,5.61907470703125,-7.986628868257999,4.546128933909535,-1.2774348882481454
2024-12-04 22:02:26.735100700,5.6291005859375,-9.02802826449275,5.164030530628562,-1.803987550177425
2024-12-04 22:02:26.745128000,5.6391279296875,-8.45804694133401,5.485439244022965,-2.540037241284549
2024-12-04 22:02:26.755154000,5.64915380859375,-6.7045315411567685,5.635687088635564,-3.402615901634097
2024-12-04 22:02:26.765181000,5.659180908203125,-4.870475454321503,5.363689179620146,-4.289926559919119
2024-12-04 22:02:26.775207000,5.66920703125,-3.5003730960309505,4.8638615891397,-5.148612012222409
2024-12-04 22:02:26.785233700,5.679233642578125,-2.530715870709717,5.014906137087941,-6.091954354330897
2024-12-04 22:02:26.795259600,5.689259765625,-2.065273364911973,5.559874599543214,-7.080596558368206
2024-12-04 22:02:26.805285600,5.69928564453125,-1.7790012852199375,6.535672519576549,-8.225031966185568
2024-12-04 22:02:26.815313000,5.70931298828125,-2.111662629512697,7.231564533948898,-9.497667052936553
2024-12-04 22:02:26.825339000,5.7193388671875,-3.531883502060175,7.2011214648902415,-10.241185910880564
2024-12-04 22:02:26.835366000,5.729365966796875,-5.998360124832392,6.416061220768094,-9.55189022603333
2024-12-04 22:02:26.845392000,5.739391845703125,-8.79113440208435,5.177634108567237,-7.364561384031176
2024-12-04 22:02:26.855419000,5.7494189453125,-10.070859739357232,4.195672405207157,-5.042985984146594
2024-12-04 22:02:26.865444900,5.75944482421875,-9.631963295179604,3.876856630915403,-2.948697244891524
2024-12-04 22:02:26.875470800,5.769470947265625,-8.021620686662196,4.244261371809244,-0.9889373875916004
2024-12-04 22:02:26.885497900,5.779497802734375,-5.297849803009629,4.797521277269721,0.46655923486799
2024-12-04 22:02:26.895523800,5.78952392578125,-2.30171743772626,5.281880664983391,1.7326099747925996
2024-12-04 22:02:26.905550600,5.799550537109375,1.5163602564841507,5.487584439358115,2.9712580362677574
2024-12-04 22:02:26.915576600,5.80957666015625,5.036054139056802,5.108753464564681,3.3768127673357724
2024-12-04 22:02:26.925603800,5.819603759765625,7.179624503353238,4.402325443130732,3.6444589108824728
2024-12-04 22:02:26.935629800,5.8296298828125,7.577615521168708,3.9750498786419626,3.6643279789566994
2024-12-04 22:02:26.945656800,5.83965673828125,7.12443511557281,4.122948529779911,3.883755158257484
2024-12-04 22:02:26.955682800,5.849682861328125,6.875248173302412,4.757000466310978,4.886369481284916
2024-12-04 22:02:26.965708800,5.859708740234375,6.147710728344321,5.921718783700466,5.573576961681247
2024-12-04 22:02:26.975735800,5.86973583984375,4.087948235808312,6.79028265593946,5.645411779314279
2024-12-04 22:02:26.985761800,5.87976171875,0.8940984187290072,6.751881905874609,5.447362903606892
2024-12-04 22:02:26.995788800,5.889788818359375,-0.6413730731993913,5.770547394502163,5.590177967870235
2024-12-04 22:02:27.005814800,5.899814697265625,-0.4728986670225858,4.446453338670731,6.114678811836242
2024-12-04 22:02:27.015841800,5.909841796875,0.3851467338114976,3.016917963680625,6.339006622660159
2024-12-04 22:02:27.025867800,5.91986767578125,2.0105340589866043,1.6569617363512514,5.972873216876387
2024-12-04 22:02:27.035894800,5.929894775390625,3.762417766308784,0.4464443753391504,5.850588314944505
2024-12-04 22:02:27.045920800,5.939920654296875,5.41153814150989,-1.0593225909382105,5.219104767596721
2024-12-04 22:02:27.055946800,5.94994677734375,6.340249316197633,-2.325854100117087,4.2950341121912
2024-12-04 22:02:27.065973800,5.959973876953125,7.666464017444849,-3.0933541376292704,3.181331696289777
2024-12-04 22:02:27.075999700,5.969999755859375,7.913043407565355,-3.699347269889712,1.979153855208308
2024-12-04 22:02:27.086027000,5.980027099609375,6.973121687555313,-4.300201285696029,1.1185839043326675
2024-12-04 22:02:27.096053000,5.990052978515625,5.6585465706974265,-4.477667976623773,0.4788276186801493
2024-12-04 22:02:27.106079700,6.000079833984375,3.8719489851295945,-4.207728753703832,0.1979394239835441
2024-12-04 22:02:27.116105700,6.010105712890625,3.916466172248125,-3.790981012970209,0.6925405119873583
2024-12-04 22:02:27.126132700,6.0201328125,5.3581379752337925,-3.7825790953278537,1.4483756845384836
2024-12-04 22:02:27.136158700,6.03015869140625,7.043060316178202,-4.072263467681408,2.1273137876309454
2024-12-04 22:02:27.146184700,6.040184814453125,8.473032913541793,-4.504273074954748,2.117056159119308
2024-12-04 22:02:27.156212000,6.0502119140625,9.346543010011317,-5.096097396609187,2.1653005500674247
2024-12-04 22:02:27.166238000,6.060238037109375,9.436309790176152,-5.75691926664412,3.00262231182456
2024-12-04 22:02:27.176264700,6.0702646484375,9.078508743929865,-6.506634056618809,4.2375364474684
2024-12-04 22:02:27.186290700,6.080290771484375,8.305940317112206,-7.469449745482206,5.702161256018281
2024-12-04 22:02:27.196318000,6.09031787109375,6.9520777304828165,-8.644776550647617,6.693398737245798
2024-12-04 22:02:27.206344000,6.100343994140625,5.632848650339246,-9.59303179923892,7.470705883023142
2024-12-04 22:02:27.216371000,6.110370849609375,5.495886988279223,-9.504781853377818,6.950751450315117
2024-12-04 22:02:27.226396700,6.120396728515625,5.650498873320221,-8.409486031782627,3.301176219332218
2024-12-04 22:02:27.236422700,6.130422607421875,3.838375216829776,-7.446396786674857,-0.2057669027388095
2024-12-04 22:02:27.246449700,6.14044970703125,0.8657441386431455,-6.153420922684669,-2.399567278842628
2024-12-04 22:02:27.256475600,6.1504755859375,-2.7524825988739727,-4.193026274612546,-3.712752110385895
2024-12-04 22:02:27.266503000,6.1605029296875,-7.429093185174465,-1.816736118721962,-5.667805981951951
2024-12-04 22:02:27.276529000,6.17052880859375,-18.605213675302267,1.7172931631952524,-9.158669491359593
2024-12-04 22:02:27.286555600,6.1805556640625,-24.581565381944177,8.081011033263803,-9.489607665121556
2024-12-04 22:02:27.296581600,6.19058154296875,-6.725268624237179,12.944316742086407,-3.040905280728638
2024-12-04 22:02:27.306609000,6.20060888671875,4.193140256381034,13.677827416235209,-0.397188834587112
2024-12-04 22:02:27.316635000,6.210634765625,4.006880018144845,14.338394434726238,-0.6755896694473922
2024-12-04 22:02:27.326660900,6.220660888671875,1.6715648467212914,16.735848374676703,0.6581896218352019
2024-12-04 22:02:27.336687900,6.23068798828125,-4.716416234727204,18.255083894336224,3.740135207352042
2024-12-04 22:02:27.346713900,6.2407138671875,-15.407732808244228,13.84479375593662,3.694855511428416
2024-12-04 22:02:27.356740600,6.25074072265625,-14.261944816774127,5.695810425686836,0.4643257767274975
2024-12-04 22:02:27.366766600,6.2607666015625,1.2407701681956649,0.1576046371161937,-0.6388171051062643
2024-12-04 22:02:27.376793900,6.2707939453125,8.424570788189769,-2.4059616560548545,1.2845789147838949
2024-12-04 22:02:27.386819800,6.28081982421875,8.169120693871378,-5.127716523709893,2.4973820486456155
2024-12-04 22:02:27.396846800,6.290846923828125,6.708380033278464,-7.227897243613004,4.653764548242092
2024-12-04 22:02:27.406872800,6.300872802734375,5.053298119324445,-8.635861422786116,6.336258200734854
2024-12-04 22:02:27.416898800,6.31089892578125,5.016122527140379,-9.939334130871297,7.607500956344604
2024-12-04 22:02:27.426925800,6.32092578125,7.50165105638504,-9.30910146036744,7.798696312895417
2024-12-04 22:02:27.436951800,6.330951904296875,9.280823460388184,-6.3110635537236925,7.138675822371244
2024-12-04 22:02:27.446978800,6.340978759765625,8.106942177855968,-3.249478180798888,7.593432683503627
2024-12-04 22:02:27.457004800,6.3510048828125,6.095712245559692,-0.2532493694037199,7.041829897600412
2024-12-04 22:02:27.467031800,6.36103173828125,3.4354891204491254,2.6077619932502505,5.334988570314645
2024-12-04 22:02:27.477057800,6.371057861328125,0.739099872457981,6.016405484610796,2.7963685023516414
2024-12-04 22:02:27.487084800,6.381084716796875,-1.0541244377732275,9.424371515101194,0.6291646759461611
2024-12-04 22:02:27.497110800,6.39111083984375,-0.6441980674922466,9.524814587581156,-0.2906047386014834
2024-12-04 22:02:27.507136800,6.40113671875,0.0868856717705726,7.397326758557558,-0.5162395038381219
2024-12-04 22:02:27.517163800,6.411163818359375,-0.1587454777143895,4.942411978763341,-0.5444297524686903
2024-12-04 22:02:27.527189800,6.421189697265625,-0.4444593390017747,3.197524121677876,-0.8034137200016528
2024-12-04 22:02:27.537217000,6.431217041015625,-0.3132897043466567,1.970797384142876,-1.2195048234574497
2024-12-04 22:02:27.547242800,6.44124267578125,0.2731583310969174,0.616349106580019,-1.64415676144436
2024-12-04 22:02:27.557269800,6.451269775390625,0.7094014842867851,-0.7760714665025472,-2.2650090246625245
2024-12-04 22:02:27.567295700,6.461295654296875,0.9486321190796791,-1.8750000916421408,-2.789557068771124
2024-12-04 22:02:27.577322800,6.47132275390625,1.196379968457669,-2.526043494984507,-3.1461358797460792
2024-12-04 22:02:27.587348700,6.4813486328125,1.2057178517758846,-2.7304011154472825,-3.435190429763496
2024-12-04 22:02:27.597375000,6.491375,1.1632265444617718,-2.8981852012723683,-3.62796808706969
2024-12-04 22:02:27.607401700,6.501401611328125,1.1714772170651704,-2.937183917230368,-3.725821435317397
2024-12-04 22:02:27.617427700,6.511427734375,1.0009323612898589,-2.518352940481901,-3.612534955616295
2024-12-04 22:02:27.627454700,6.521454833984375,0.607501162203215,-2.1114690066367388,-3.396666930101812
2024-12-04 22:02:27.637481500,6.5314814453125,0.2824000605642795,-2.330247951161861,-2.9645816272437573
2024-12-04 22:02:27.647508700,6.5415087890625,-0.0571673915888182,-2.795245051279664,-2.248423216042668
2024-12-04 22:02:27.657534700,6.55153466796875,-0.2153852104336023,-2.92604643714428,-1.442427005267143
2024-12-04 22:02:27.667561500,6.5615615234375,-0.0955716670513153,-2.547228906354308,-0.7072963287010788
2024-12-04 22:02:27.677587500,6.57158740234375,0.1283680395041592,-1.8082506144493813,0.1192579553261399
2024-12-04 22:02:27.687613400,6.581613525390625,0.334098610554263,-1.2801818488687275,1.318909931191802
2024-12-04 22:02:27.697640700,6.591640625,0.8537655315577983,-1.1605910083264113,1.8219120600551368
2024-12-04 22:02:27.707666700,6.601666748046875,1.505764628189802,-1.2135773331046105,1.8825358939744528
2024-12-04 22:02:27.717693400,6.611693359375,1.3295990829885005,-1.2075649409472942,1.6605609298869966
2024-12-04 22:02:27.727719400,6.621719482421875,0.6217652133446187,-1.5946604707390069,0.943551674010232
2024-12-04 22:02:27.737746400,6.631746337890625,-0.3754314685482531,-2.348010402345657,0.5451701225072145
2024-12-04 22:02:27.747772400,6.6417724609375,-1.289696403928101,-2.517343471178412,0.7710060728717595
2024-12-04 22:02:27.757799700,6.651799560546875,-2.2360898041702804,-1.656319346794486,1.0050148813631383
2024-12-04 22:02:27.767825700,6.66182568359375,-3.554244971472025,-0.1664209807783365,0.8009429459739476
2024-12-04 22:02:27.777851600,6.6718515625,-5.025613993585109,1.778085777810216,0.2960447011657059
2024-12-04 22:02:27.787878400,6.68187841796875,-6.961067092624306,4.077257038185,-0.8519218764524906
2024-12-04 22:02:27.797904400,6.691904296875,-8.937061460888385,6.071078739562631,-2.748819400191307
2024-12-04 22:02:27.807931600,6.701931640625,-9.815427180695533,7.150200840470195,-4.73616342998743
2024-12-04 22:02:27.817957600,6.71195751953125,-9.459998124277591,7.312999539098143,-5.795671898886561
2024-12-04 22:02:27.827984600,6.721984619140625,-8.112911315393447,6.7470256980150936,-5.460619275543094
2024-12-04 22:02:27.838010600,6.7320107421875,-6.171821671772003,5.799120578035712,-4.233424628235399
2024-12-04 22:02:27.848036600,6.74203662109375,-4.136839400227368,4.881969492760301,-3.277428556258976
2024-12-04 22:02:27.858063400,6.7520634765625,-2.9484193047329783,3.7584693209439513,-3.2386656948834656
2024-12-04 22:02:27.868089300,6.76208935546875,-2.569823600000143,3.261349235856533,-4.030134052482247
2024-12-04 22:02:27.878116600,6.77211669921875,-2.0682605640292167,4.583865082585811,-5.032738730898499
2024-12-04 22:02:27.888142600,6.782142578125,-1.7297279896154998,6.777434280282258,-6.253132173758745
2024-12-04 22:02:27.898169600,6.792169677734375,-1.9449008724726733,8.67462691451013,-7.682568764549494
2024-12-04 22:02:27.908195600,6.802195556640625,-3.77661931014061,8.986077712991833,-8.128119405919312
2024-12-04 22:02:27.918222600,6.81222265625,-7.453666485416889,7.680839748799801,-6.317294557067752
2024-12-04 22:02:27.928248600,6.82224853515625,-10.655099889492988,6.089983931040764,-3.904994345641136
2024-12-04 22:02:27.938274600,6.832274658203125,-11.693987010645866,5.44826072922945,-1.7284323968470097
2024-12-04 22:02:27.948301600,6.842301513671875,-10.480134952253104,5.588884420928359,0.4653557042971253
2024-12-04 22:02:27.958327600,6.85232763671875,-6.690964203575253,5.747562240234017,2.206529217034578
2024-12-04 22:02:27.968354600,6.8623544921875,-1.2385919473737477,5.766097429355979,3.530555176065862
2024-12-04 22:02:27.978380500,6.872380615234375,4.432668558946252,5.566401955485343,4.255267334470153
2024-12-04 22:02:27.988407600,6.882407470703125,8.885724656882882,4.91712439277172,4.046040938927233
2024-12-04 22:02:27.998433500,6.89243359375,10.866291155368089,4.166882948574424,3.520055117100477
2024-12-04 22:02:28.008460500,6.90246044921875,10.082809704869986,4.143106351667642,3.3759935599073767
2024-12-04 22:02:28.018486500,6.912486572265625,7.685581390368938,4.674178975239395,4.768201074761152
2024-12-04 22:02:28.028512500,6.922512451171875,5.378874473792314,4.565819722807407,6.37462738661766
2024-12-04 22:02:28.038539800,6.932539794921875,1.8189184311971067,4.134545444071293,6.937775064364075
2024-12-04 22:02:28.048565500,6.9425654296875,-0.907813932609558,3.552564471039176,6.869952989503741
2024-12-04 22:02:28.058592500,6.952592529296875,-1.4541858321219685,2.844345474535227,5.751301426762342
2024-12-04 22:02:28.068618500,6.962618408203125,-0.2580076698467135,2.407304887357354,4.332529437848925
2024-12-04 22:02:28.078645500,6.9726455078125,1.7201526442795991,1.817176263704896,3.2231226733148097
2024-12-04 22:02:28.088671500,6.98267138671875,4.085578291806579,0.9131699066847562,2.3214947358638045
2024-12-04 22:02:28.098698500,6.992698486328125,6.237284616285562,0.0941997941762208,2.021416395267844
2024-12-04 22:02:28.108724500,7.002724365234375,7.176620060840249,-0.5088017550528049,1.9721756867587563
2024-12-04 22:02:28.118750500,7.01275048828125,7.050086269292235,-1.2781190711200237,1.2365109033159911
2024-12-04 22:02:28.128777500,7.022777587890625,7.269600542354583,-2.3628940832227467,1.236882366976887
2024-12-04 22:02:28.138803500,7.032803466796875,8.204875313341617,-3.4617724394798275,0.8382312778174876
2024-12-04 22:02:28.148830700,7.042830810546875,8.44455968325138,-4.101065199273824,-0.1433247673511505
2024-12-04 22:02:28.158856700,7.052856689453125,7.503152108597755,-4.408200472643971,-0.882676714874059
2024-12-04 22:02:28.168883500,7.062883544921875,4.93392939710021,-4.6201609693259,-1.8102505560949445
2024-12-04 22:02:28.178909400,7.072909423828125,2.338440025445818,-4.413687964144349,-1.6960688811197877
2024-12-04 22:02:28.188936400,7.0829365234375,3.747863171255588,-4.192387392187118,-0.4037456358194351
2024-12-04 22:02:28.198962400,7.09296240234375,5.665184985798597,-4.404935333368182,0.2950749793507158
2024-12-04 22:02:28.208988700,7.10298876953125,7.054332236298919,-4.872232527121901,0.4098578350894153
2024-12-04 22:02:28.219015700,7.113015625,7.900863140428066,-5.166647435128689,0.3725875503592193
2024-12-04 22:02:28.229041700,7.123041748046875,8.459800507003068,-5.28686312957108,1.294272918063402
2024-12-04 22:02:28.239068400,7.133068359375,8.66304812039733,-5.500861854082346,2.800241544392705
2024-12-04 22:02:28.249094400,7.143094482421875,8.478535018089413,-6.332315016067028,4.540087315657734
2024-12-04 22:02:28.259121700,7.15312158203125,7.527074251455068,-7.566661580955982,5.523335551697016
2024-12-04 22:02:28.269147600,7.163147705078125,6.283181859585643,-8.849617570713162,5.73651477651894
2024-12-04 22:02:28.279174700,7.173174560546875,5.432821168035268,-9.67378525186479,5.879947680419683
2024-12-04 22:02:28.289200600,7.18320068359375,4.809658874309062,-9.523846034809946,4.88582119975239
2024-12-04 22:02:28.299226600,7.1932265625,3.0189813259512186,-8.642812557098269,2.3366570875518025
2024-12-04 22:02:28.309253400,7.20325341796875,-0.8361006955295801,-7.410790051242708,0.2164300433114171
2024-12-04 22:02:28.319279600,7.213279541015625,-6.037273500594496,-5.648645354408026,-1.9688824904322624
2024-12-04 22:02:28.329306600,7.223306640625,-11.517416976296902,-3.044881490883231,-5.350293691474199
2024-12-04 22:02:28.339332600,7.23333251953125,-20.113664766097067,1.6731804652243851,-8.200436454111337
2024-12-04 22:02:28.349359600,7.243359619140625,-22.0146000939846,9.285046631041167,-5.259259667852521
2024-12-04 22:02:28.359385600,7.253385498046875,-7.913949416494369,14.519409173524378,1.0947905024215578
2024-12-04 22:02:28.369412600,7.26341259765625,0.3033709524005651,15.800323428320883,2.990619154819846
2024-12-04 22:02:28.379438600,7.2734384765625,-0.6386684904158115,14.576450326651337,0.8494372930951416
2024-12-04 22:02:28.389464600,7.283464599609375,-3.6569139033079145,12.813643366515636,2.6463541742339727
2024-12-04 22:02:28.399491600,7.29349169921875,-5.733845849570631,11.341369504517315,7.6763243172019715
2024-12-04 22:02:28.409517600,7.303517578125,-3.409663774318993,7.184891630101204,8.573354989990591
2024-12-04 22:02:28.419544600,7.313544677734375,1.547661988198757,0.8378764730304479,7.098001282155513
2024-12-04 22:02:28.429570600,7.323570556640625,3.071506462958455,-2.700570040807128,4.91460802603662
2024-12-04 22:02:28.439597600,7.33359765625,1.9121172316372392,-2.2241700876653194,3.567108836959302
2024-12-04 22:02:28.449623600,7.34362353515625,6.933519745007157,-2.512843237149715,3.065093673306704
2024-12-04 22:02:28.459650600,7.353650634765625,9.95008816459775,-3.747242993530631,2.742191214223206
2024-12-04 22:02:28.469676500,7.363676513671875,7.904074503690004,-4.017431807297468,3.639107612982392
2024-12-04 22:02:28.479702500,7.37370263671875,6.109060971954465,-3.809641874298453,5.017421334779263
2024-12-04 22:02:28.489729500,7.3837294921875,7.452995454287529,-3.753087627905607,6.0951569497644895
2024-12-04 22:02:28.499755500,7.393755615234375,7.942796740794181,-2.889102900150418,6.979187271204591
2024-12-04 22:02:28.509782500,7.403782470703125,7.197218027710914,-0.5054600434094667,6.787019270229339
2024-12-04 22:02:28.519808500,7.41380859375,6.681921065419912,2.1338468426615,5.53393819425404
2024-12-04 22:02:28.529835500,7.42383544921875,5.596186268374323,4.246942573717236,4.132921057739853
2024-12-04 22:02:28.539861500,7.433861572265625,3.997300873416662,5.645100813668966,3.486249878132343
2024-12-04 22:02:28.549888500,7.443888427734375,2.7756448632746933,6.589329290962219,1.9380457458809013
2024-12-04 22:02:28.559914500,7.45391455078125,0.9857441445082424,8.198028808447718,0.2221695368114858
2024-12-04 22:02:28.569940500,7.4639404296875,-0.9028612786382436,8.692304610019923,-1.6915946583151815
2024-12-04 22:02:28.579967500,7.473967529296875,-1.899586835888028,6.556911706960201,-3.0934955919265743
2024-12-04 22:02:28.589993500,7.483993408203125,-2.2663006719082595,3.776587745958567,-3.769151166217029
2024-12-04 22:02:28.600020700,7.494020751953125,-2.625057411444187,1.3089911792457103,-3.8373137250781055
2024-12-04 22:02:28.610046700,7.504046630859375,-2.9999264968693256,-1.2283856106579305,-3.558093755854666
2024-12-04 22:02:28.620073500,7.514073486328125,-2.7744214589595795,-2.843306194615364,-2.868256219215691
2024-12-04 22:02:28.630099500,7.524099365234375,-1.7479758862286805,-3.4470629461258646,-2.5159026247203347
2024-12-04 22:02:28.640124700,7.534124755859375,-0.3354612772095948,-3.533556988230348,-2.9851100360095497
2024-12-04 22:02:28.650151700,7.544151611328125,0.6518863569725305,-3.157199710074067,-3.340813817715645
2024-12-04 22:02:28.660177700,7.554177734375,1.1160651264447718,-2.839969743669033,-3.086881142222881
2024-12-04 22:02:28.670205000,7.564204833984375,1.4039549435317515,-2.8138568127691745,-2.5162463235914707
2024-12-04 22:02:28.680231000,7.57423095703125,1.6588175933510063,-2.9609716200530527,-1.861827160205692
2024-12-04 22:02:28.690257700,7.584257568359375,1.8517261835604903,-3.2642052098095413,-1.245641281363368
2024-12-04 22:02:28.700283600,7.59428369140625,1.9068004205286504,-3.5049528250366446,-0.8751300258215516
2024-12-04 22:02:28.710310700,7.604310546875,1.8693442578375337,-3.700683486929536,-0.9017053866013884
2024-12-04 22:02:28.720337000,7.6143369140625,1.7982605508327485,-3.965502298095822,-1.020242699502781
2024-12-04 22:02:28.730363000,7.62436279296875,1.8102993636727327,-4.041454487919808,-0.8506772101536393
2024-12-04 22:02:28.740390000,7.634389892578125,1.7970055823355913,-3.8420302322059854,-0.5102035846747458
2024-12-04 22:02:28.750416000,7.644415771484375,1.708897675293684,-3.591123042014241,-0.3004767653290182
2024-12-04 22:02:28.760442600,7.654442626953125,1.9603204137921333,-2.8751094461113214,-0.0443881539113819
2024-12-04 22:02:28.770468600,7.664468505859375,1.9893033471703527,-1.7427239570498465,0.1298874858900904
2024-12-04 22:02:28.780496000,7.674495849609375,1.5109201112568378,-0.4260159198164939,0.1131835307832807
2024-12-04 22:02:28.790521900,7.68452197265625,0.3273170606553554,1.5214000042170286,0.3791390908945352
2024-12-04 22:02:28.800548900,7.694548828125,-1.616267176260799,3.538391568779945,0.9391767468616364
2024-12-04 22:02:28.810574800,7.704574951171875,-4.254029901629687,4.433210410737991,1.2970615258686244
2024-12-04 22:02:28.820600800,7.714600830078125,-7.528971609508991,3.821571966066956,1.2957906291499732
2024-12-04 22:02:28.830627800,7.7246279296875,-10.091925908261535,2.462823945483565,1.0653795528896153
2024-12-04 22:02:28.840653800,7.73465380859375,-10.89226964623332,1.5357061774671077,0.5870689438208937
2024-12-04 22:02:28.850680800,7.744680908203125,-9.722146839451788,1.759360619074106,-0.3561054213095456
2024-12-04 22:02:28.860706800,7.754706787109375,-7.34713503293395,2.6590736628144978,-1.9968603384211656
2024-12-04 22:02:28.870733800,7.76473388671875,-4.735377540306747,3.378046693044901,-3.652970134118199
2024-12-04 22:02:28.880759800,7.774759765625,-3.409323582579195,3.0975200251370665,-4.44309701398015
2024-12-04 22:02:28.890786800,7.784786865234375,-3.148107472079992,2.100325681331753,-5.222566306227446
2024-12-04 22:02:28.900812800,7.794812744140625,-2.361191078697145,2.601500594767928,-6.117874977529048
2024-12-04 22:02:28.910838800,7.8048388671875,-1.566633376780897,4.621948437264561,-6.287000541090965
2024-12-04 22:02:28.920865800,7.81486572265625,-1.190641570936143,6.4318912425845856,-6.509955894517899
2024-12-04 22:02:28.930891800,7.824891845703125,-1.4308768527269362,7.799256869387626,-6.749319946432113
2024-12-04 22:02:28.940918800,7.834918701171875,-2.423256781987846,8.970795388185977,-6.648662938940524
2024-12-04 22:02:28.950945000,7.844945068359375,-3.94381595146656,9.548616318929197,-6.426304966884851
2024-12-04 22:02:28.960971800,7.8549716796875,-5.463561174213886,8.670373933240771,-6.234314076042175
2024-12-04 22:02:28.970997800,7.864997802734375,-6.754655462241172,7.130469135040045,-6.153350780057907
2024-12-04 22:02:28.981024800,7.875024658203125,-8.668353241068123,5.915055234158039,-5.178555315065384
2024-12-04 22:02:28.991050800,7.88505078125,-10.358245771640538,5.011828044816851,-3.891404211705922
2024-12-04 22:02:29.001076700,7.89507666015625,-10.632554880207776,4.468154298347234,-2.939340218481421
2024-12-04 22:02:29.011103700,7.905103759765625,-9.590428338742257,4.287911712965369,-1.9852476420387624
2024-12-04 22:02:29.021129700,7.915129638671875,-7.097945168054103,4.181296673852205,-0.737316423107311
2024-12-04 22:02:29.031156700,7.92515673828125,-3.561277354326844,3.9035593444019554,0.1829082974597811
2024-12-04 22:02:29.041182700,7.9351826171875,0.3876741333972662,3.727092770427465,1.151335104203224
2024-12-04 22:02:29.051209700,7.945209716796875,4.526138869804144,3.532607140159606,1.2792027747035026
2024-12-04 22:02:29.061236000,7.955236083984375,7.367673378571867,3.4054397268831726,1.1457647567249831
2024-12-04 22:02:29.071262000,7.965261962890625,8.297520279291271,3.110847124221921,0.777298231818527
2024-12-04 22:02:29.081288700,7.975288818359375,7.611744000741839,3.469312187334895,1.0664004203699529
2024-12-04 22:02:29.091314700,7.985314697265625,6.7504410594165325,4.695126486200094,2.6133666813895107
2024-12-04 22:02:29.101341700,7.995341796875,6.533323910623788,5.778238533526658,3.999427364051342
2024-12-04 22:02:29.111367700,8.00536767578125,6.489903286570311,6.660755527794361,4.961472068542242
2024-12-04 22:02:29.121395000,8.01539501953125,5.433538376393914,6.765134186157584,5.539362557390332
2024-12-04 22:02:29.131421000,8.0254208984375,2.9800846090629696,5.860749058952927,5.752146060892939
2024-12-04 22:02:29.141447700,8.03544775390625,-1.130184179624915,4.669380050525069,5.999981588554382
2024-12-04 22:02:29.151473700,8.0454736328125,-3.544710542668402,3.462155885839462,6.258255508121848
2024-12-04 22:02:29.161499600,8.055499755859374,-2.907602141176164,2.2384616478681565,6.262624224725365
2024-12-04 22:02:29.171527000,8.06552685546875,0.3403291024416685,1.2702619278788565,6.273579918503761
2024-12-04 22:02:29.181553000,8.075552978515624,4.161745585685968,0.1160328557997942,5.25387212959528
2024-12-04 22:02:29.191580000,8.085579833984376,6.342704892656207,-1.2289257088840009,3.88876100372076
2024-12-04 22:02:29.201606000,8.09560595703125,7.226392099747061,-2.19682849175334,2.1175617705538867
2024-12-04 22:02:29.211632600,8.105632568359376,7.639878208336234,-2.8881647425174712,1.0595436863429843
2024-12-04 22:02:29.221658600,8.11565869140625,7.444919699859619,-3.4094892945349216,0.3190791014030575
2024-12-04 22:02:29.231686000,8.125685791015625,6.925451589363813,-3.6492175035864114,-0.1904233492650091
2024-12-04 22:02:29.241711900,8.1357119140625,5.7799663802325725,-3.504205221539736,-0.6880465615689754
2024-12-04 22:02:29.251737900,8.14573779296875,3.850553730401397,-3.186545631545782,-0.2879980267018079
2024-12-04 22:02:29.261764900,8.155764892578125,3.99308939320147,-3.1410347572147845,0.1266094871327281
2024-12-04 22:02:29.271790800,8.165790771484374,5.98929886649847,-3.247259920227528,0.537004351708293
2024-12-04 22:02:29.281817900,8.17581787109375,7.745657965669036,-3.3258605787336823,0.7369026546746492
2024-12-04 22:02:29.291843800,8.18584375,8.785271063008905,-3.566665477105975,0.682478406047821
2024-12-04 22:02:29.301870800,8.195870849609374,9.342966320568324,-3.837158826777338,1.2298596287332475
2024-12-04 22:02:29.311896800,8.205896728515626,9.837620307803151,-4.251285571357608,2.237626219957322
2024-12-04 22:02:29.321923800,8.215923828125,9.923084422338007,-4.973507374250889,3.459506540374458
2024-12-04 22:02:29.331949800,8.22594970703125,9.561683890295027,-5.942521917754411,4.738623098099231
2024-12-04 22:02:29.341975800,8.235975830078125,8.837084836876391,-7.090362750101089,5.740894599038362
2024-12-04 22:02:29.352002800,8.2460029296875,7.636418423271179,-8.455468615278601,6.768452516925335
2024-12-04 22:02:29.362028800,8.25602880859375,6.568098286885022,-9.41294469667971,7.109280801060796
2024-12-04 22:02:29.372055800,8.266055908203125,6.212038531348109,-9.566004676103592,5.692305632436275
2024-12-04 22:02:29.382081800,8.276081787109375,5.514689303904771,-8.781146092033385,2.0069347193203866
2024-12-04 22:02:29.392108800,8.28610888671875,2.858760953378677,-7.8515972974777215,-0.6698875122830271
2024-12-04 22:02:29.402134800,8.296134765625,-0.7901952689230441,-6.299285437646508,-1.963768216158449
2024-12-04 22:02:29.412160800,8.306160888671876,-5.382640548327565,-4.403105195331573,-3.2262340833336114
2024-12-04 22:02:29.422187800,8.316187744140626,-11.8669598972857,-1.873134882292152,-5.5333180165290825
2024-12-04 22:02:29.432213800,8.3262138671875,-23.52130346432924,2.6312124269425867,-7.392326173791289
2024-12-04 22:02:29.442240800,8.33624072265625,-21.769807002758977,9.045490855947136,-3.813459386759997
2024-12-04 22:02:29.452266800,8.346266845703125,-6.0255094130426645,12.263505392467977,0.9989010015927254
2024-12-04 22:02:29.462293800,8.356293701171875,0.7292991939336061,12.81967797050476,2.623641991688311
2024-12-04 22:02:29.472319700,8.36631982421875,-0.0984896003246307,14.072373846554756,2.982724894438684
2024-12-04 22:02:29.482346800,8.3763466796875,-2.9124653632983564,17.193834134727716,6.8478492942452425
2024-12-04 22:02:29.492372700,8.386372802734375,-8.794670174995064,17.79620381579399,11.511706197434664
2024-12-04 22:02:29.502398700,8.396398681640624,-12.095731243515011,11.002252115952968,8.665055368566513
2024-12-04 22:02:29.512426000,8.406426025390624,-6.065763682019711,3.9226007294803855,1.4093243616104123
2024-12-04 22:02:29.522452000,8.416451904296874,2.5491475994572044,0.7115776592820883,-2.649431681983173
2024-12-04 22:02:29.532478700,8.426478759765626,11.117386561608312,-2.426163901606202,-1.5904492827847598
2024-12-04 22:02:29.542504700,8.436504638671876,14.581653740513325,-5.5785220168679945,0.6377431922644377
2024-12-04 22:02:29.552531700,8.44653173828125,13.19646662581563,-7.5837641069263215,2.3953872166790067
2024-12-04 22:02:29.562557700,8.4565576171875,10.183984598755837,-8.363514554202556,3.960687006768584
2024-12-04 22:02:29.572585000,8.4665849609375,9.151357707041502,-8.587123987624048,5.435438657057285
2024-12-04 22:02:29.582611000,8.47661083984375,9.393411728692056,-6.65038786303699,6.698548375093937
2024-12-04 22:02:29.592637000,8.486636962890625,7.90212395414412,-2.94389305948019,8.322221589827537
2024-12-04 22:02:29.602663700,8.49666357421875,6.484819115173816,1.2163801155656575,8.315198559322953
2024-12-04 22:02:29.612689700,8.506689697265625,5.096698869633674,4.274207597261667,6.1363540525496
2024-12-04 22:02:29.622717000,8.516717041015625,3.60048708268702,6.96574092965424,2.2248625999741254
2024-12-04 22:02:29.632743400,8.526743408203124,1.4548510180324314,9.403357368645072,-0.5167377356838435
2024-12-04 22:02:29.642770200,8.536770263671874,-0.2438543490707874,9.827080209088326,-1.0346103206165134
2024-12-04 22:02:29.652796200,8.546796142578126,-0.3594181260541081,8.31486830445528,-0.8246930201999843
2024-12-04 22:02:29.662823200,8.5568232421875,-0.6969346552930772,5.930535711884498,-0.8217967142365873
2024-12-04 22:02:29.672849400,8.566849365234376,-1.0572433004461228,3.4710528935223817,-0.8567552148930728
2024-12-04 22:02:29.682875400,8.57687548828125,-1.001546547665447,1.8462240790128708,-0.7544713368520141
2024-12-04 22:02:29.692902400,8.58690234375,-0.9258885184824466,0.7277887893706559,-1.0091284541618075
2024-12-04 22:02:29.702928400,8.596928466796875,-0.9828536106985062,-0.4743354218274355,-1.6186451574385166
2024-12-04 22:02:29.712955100,8.606955078125,-1.1814425846319645,-1.693744529825449,-2.3984753919526933
2024-12-04 22:02:29.722981000,8.616981201171875,-1.217168051072955,-2.6324136194258925,-3.090402302086353
2024-12-04 22:02:29.733008400,8.62700830078125,-1.008960769444704,-3.0256542278438805,-3.77075334071666
2024-12-04 22:02:29.743034400,8.637034423828124,-0.6882106660895049,-2.774683324766159,-4.442530904529988
2024-12-04 22:02:29.753061400,8.647061279296874,-0.0394710096448659,-2.2540713049322365,-4.903029816445708
2024-12-04 22:02:29.763087400,8.65708740234375,0.6840273159902542,-1.741234595274925,-4.984231012839079
2024-12-04 22:02:29.773113300,8.66711328125,1.099037419276312,-1.2778747409701348,-4.695380753222108
2024-12-04 22:02:29.783140000,8.67714013671875,1.3829793755203486,-1.01348146173954,-4.067955541354418
2024-12-04 22:02:29.793166300,8.687166259765625,1.3705921876341105,-1.1020721838623284,-3.003589987812936
2024-12-04 22:02:29.803193300,8.697193359375,1.0823714580923318,-1.6476012028098106,-2.0453698100462554
2024-12-04 22:02:29.813219300,8.70721923828125,0.762871208667755,-2.4290531933069226,-1.4492916303396224
2024-12-04 22:02:29.823246300,8.717246337890625,0.3832786018520593,-2.9870144083261487,-0.8610266086019575
2024-12-04 22:02:29.833272300,8.727272216796875,0.1591618034303188,-2.969227991744876,-0.1843557928543537
2024-12-04 22:02:29.843298300,8.73729833984375,0.1441653098285198,-2.5395330911546945,0.5459826809991151
2024-12-04 22:02:29.853325300,8.7473251953125,0.2014309558937325,-2.2555291025251147,1.0850067750319838
2024-12-04 22:02:29.863351300,8.757351318359374,0.4078384215584024,-2.314647646448016,1.3284398299507796
2024-12-04 22:02:29.873378300,8.76737841796875,0.6628373015105724,-2.0526134975641965,1.5342581706158815
2024-12-04 22:02:29.883404300,8.777404296875,0.5592857416212559,-1.686537959447503,1.5874422099232672
2024-12-04 22:02:29.893431300,8.787431396484376,0.2142658510148525,-1.6547423067361116,1.1304945607483383
2024-12-04 22:02:29.903457300,8.797457275390625,-0.5731144335526973,-1.5563263561695813,0.7484395093418658
2024-12-04 22:02:29.913484300,8.807484375,-1.4935913753151893,-1.0948416480869054,1.2047777213815598
2024-12-04 22:02:29.923510300,8.81751025390625,-2.382351063364744,-0.4251157561063766,1.613252650745213
2024-12-04 22:02:29.933536300,8.827536376953125,-3.406531613773107,0.5318073675870895,1.7263649429231882
2024-12-04 22:02:29.943563300,8.837563232421875,-4.70194084239006,1.5400386537134647,1.499841375620663
2024-12-04 22:02:29.953589200,8.84758935546875,-5.977979015582799,2.537403677910566,0.7848466744367033
2024-12-04 22:02:29.963616300,8.8576162109375,-7.072167752718925,3.807921041855216,-0.5823385542981326
2024-12-04 22:02:29.973642200,8.867642333984374,-7.788107698863744,5.222547601526975,-2.5430501593649386
2024-12-04 22:02:29.983669200,8.877669189453124,-7.728731965309381,6.18294220072329,-4.419020557343959
2024-12-04 22:02:29.993695200,8.8876953125,-6.73394117551446,5.970753740504383,-5.447949763584137
2024-12-04 22:02:30.003722200,8.89772216796875,-5.935502394381166,5.074944718465209,-5.4966229013383385
2024-12-04 22:02:30.013748500,8.90774853515625,-5.106327114200592,4.415077372676134,-5.109359613764286
2024-12-04 22:02:30.023774500,8.9177744140625,-3.869979146361351,4.760197216525674,-4.981193252578377
2024-12-04 22:02:30.033801200,8.92780126953125,-2.629619020271301,5.435691170513629,-5.286637504121661
2024-12-04 22:02:30.043827200,8.9378271484375,-2.0413693422332404,6.112474579790234,-6.071873104810714
2024-12-04 22:02:30.053854200,8.947854248046875,-1.826524668417126,7.271991236883402,-7.106208554008603
2024-12-04 22:02:30.063880200,8.957880126953125,-1.9952095024742185,8.008644300711154,-8.295652147331833
2024-12-04 22:02:30.073907500,8.967907470703125,-3.1367209856688976,7.894339876139163,-9.110904700621962
2024-12-04 22:02:30.083933400,8.977933349609375,-5.719969884431362,6.820538677993416,-8.342183012360334
2024-12-04 22:02:30.093959400,8.98795947265625,-9.117107062393426,5.378829465606809,-5.872408517086505
2024-12-04 22:02:30.103986200,8.997986083984374,-11.708871276044844,4.504491101619601,-3.324472339245677
2024-12-04 22:02:30.114012200,9.00801220703125,-12.075269470244644,4.364370098745822,-1.2282543854936956
2024-12-04 22:02:30.124039400,9.018039306640626,-10.270818832600115,4.832636429792642,1.0640184206042438
2024-12-04 22:02:30.134065400,9.0280654296875,-6.473513292783498,5.225966470059753,3.061122139327228
2024-12-04 22:02:30.144092400,9.038092529296875,-1.7816683124721049,5.186538715034723,4.081260136346518
2024-12-04 22:02:30.154118400,9.048118408203123,3.595349135276675,4.8383869561433785,3.842202958424389
2024-12-04 22:02:30.164145200,9.058145263671875,8.201604328846932,3.995765918934345,3.405133729673922
2024-12-04 22:02:30.174171100,9.068171142578125,10.342660079973935,3.146714556416869,3.134799077695608
2024-12-04 22:02:30.184197000,9.078197021484376,10.047250900232791,3.083826430827379,2.7415765894562005
2024-12-04 22:02:30.194224400,9.088224365234376,8.301199260064958,3.521109010067582,3.54546048425287
2024-12-04 22:02:30.204250400,9.09825048828125,7.018784537577629,3.807535257408023,4.875925828681886
2024-12-04 22:02:30.214277400,9.10827734375,5.398727759775519,3.939751770767569,5.185171518334746
2024-12-04 22:02:30.224303400,9.118303466796876,3.119796738874912,4.075587059146166,4.603085331362486
2024-12-04 22:02:30.234330400,9.128330322265626,1.5157134830132126,3.9841894629091024,3.165903533272445
2024-12-04 22:02:30.244356400,9.1383564453125,0.5551058255881071,3.4951007085859773,1.8707441877633333
2024-12-04 22:02:30.254383400,9.14838330078125,-0.4813701427698135,2.7599954587221145,1.1781020420324058
2024-12-04 22:02:30.264409300,9.158409423828124,-0.0450876804828643,2.1657056237369776,1.483000715456903
2024-12-04 22:02:30.274435300,9.168435302734377,1.6207868456423282,1.486754807293415,1.947199943195284
2024-12-04 22:02:30.284462300,9.17846240234375,2.2961633107304573,0.9681570498913528,2.504296358078718
2024-12-04 22:02:30.294488000,9.188488037109376,3.213707779237628,-0.2167401321738958,2.679178293210268
2024-12-04 22:02:30.304515300,9.198515380859376,4.649861695584654,-1.2211340320944786,3.211964150440693
2024-12-04 22:02:30.314541300,9.208541259765624,5.484788086637854,-2.2224784813165663,2.688387727843225
2024-12-04 22:02:30.324568300,9.218568359375,5.1722179287374015,-2.885533809491992,1.3313063252978026
2024-12-04 22:02:30.334594300,9.22859423828125,4.188021013671159,-3.017842677310109,-0.1159852172657847
2024-12-04 22:02:30.344621300,9.238621337890624,3.8970170831516384,-2.8480086732178926,-0.0636404052615165
2024-12-04 22:02:30.354647300,9.248647216796876,4.096650597701967,-2.813561629214883,1.0603934350401163
2024-12-04 22:02:30.364673300,9.25867333984375,4.740352113848925,-3.088573333093524,1.7584724380627272
2024-12-04 22:02:30.374700300,9.2687001953125,5.682358238917589,-3.631072190564871,1.928238929876685
2024-12-04 22:02:30.384726300,9.278726318359375,7.016437097668647,-4.313005237689614,2.2027856465920803
2024-12-04 22:02:30.394753300,9.288753173828123,8.478992698729037,-4.807846271929145,2.797281233282387
2024-12-04 22:02:30.404779300,9.298779296875,9.532557749053836,-5.249755341926217,3.5610727716654536
2024-12-04 22:02:30.414806300,9.30880615234375,9.938310048520565,-5.678031607890129,3.700930447427928
2024-12-04 22:02:30.424832300,9.318832275390625,10.028387209808828,-6.325092663598061,3.8285315759465095
2024-12-04 22:02:30.434858200,9.328858154296874,9.891305136239527,-7.003046870219707,4.813175357997417
2024-12-04 22:02:30.444885200,9.33888525390625,9.795164729389548,-7.583209980174899,5.929885723543166
2024-12-04 22:02:30.454911200,9.3489111328125,9.178413471749424,-8.151378700953721,6.657315616473555
2024-12-04 22:02:30.464938500,9.3589384765625,7.731056608864664,-8.595899414753914,7.259919690817594
2024-12-04 22:02:30.474964500,9.368964599609376,5.744149801442027,-8.497759358519316,7.943069712516665
2024-12-04 22:02:30.484991200,9.3789912109375,4.031500080138445,-7.685006220829487,6.730238229343295
2024-12-04 22:02:30.495017200,9.389017333984375,1.221905600988865,-6.312169469138979,3.5400641781672832
2024-12-04 22:02:30.505044200,9.399044189453123,-3.075671765944361,-4.764831306067109,1.423407832020521
2024-12-04 22:02:30.515070200,9.4090703125,-7.2499115070223805,-2.860435608592629,-0.8046854204379021
2024-12-04 22:02:30.525096400,9.419096435546876,-11.512362030994892,-0.3888777370333671,-4.365312932553887
2024-12-04 22:02:30.535123500,9.42912353515625,-18.56240913732052,3.2189883499890564,-8.75745249723494
2024-12-04 22:02:30.545149400,9.4391494140625,-21.311777988088128,9.383172658750414,-8.495634036928415
2024-12-04 22:02:30.555176200,9.44917626953125,-9.069087420111892,14.74829976221919,-2.6369763972967863
2024-12-04 22:02:30.565202200,9.4592021484375,1.2632476652026177,16.857209147500992,1.4347501870289443
2024-12-04 22:02:30.575229400,9.4692294921875,3.332842692705989,18.680367992746827,2.7159625479891893
2024-12-04 22:02:30.585255400,9.47925537109375,-2.162542191269994,21.17373028435707,1.2874839885756373
2024-12-04 22:02:30.595281400,9.489281494140624,-12.408317183506488,19.831686730337143,1.2625750266380606
2024-12-04 22:02:30.605308400,9.499308349609375,-9.225191005015372,11.531299371176958,-0.374738298652321
2024-12-04 22:02:30.615334400,9.50933447265625,3.948621890443563,2.785701562386751,-0.4131161062330007
2024-12-04 22:02:30.625361200,9.519361083984377,12.240381706511974,-2.9810429327011105,2.30231365005374
2024-12-04 22:02:30.635387000,9.529386962890625,12.900613209438324,-6.181144211390614,3.445147175632417
2024-12-04 22:02:30.645414100,9.5394140625,9.10065160215497,-8.551183490192889,4.953253106251359
2024-12-04 22:02:30.655440100,9.549440185546874,2.396769464817643,-10.332261435556411,7.689106057363748
2024-12-04 22:02:30.665467100,9.559467041015624,-1.9849244014337657,-12.575597995984554,10.66281674748063
2024-12-04 22:02:30.675493000,9.5694931640625,3.618630642142892,-11.00070196390152,10.872039343631268
2024-12-04 22:02:30.685519000,9.57951904296875,10.07830537918806,-5.6634454486548895,9.12012319534421
2024-12-04 22:02:30.695545900,9.5895458984375,10.798368542742727,-2.2089736875772474,8.882807308131456
2024-12-04 22:02:30.705572000,9.599572021484375,9.412837729173898,1.0135434210598468,8.400497838684917
2024-12-04 22:02:30.715599000,9.60959912109375,7.189853636422753,3.633250703647733,7.008589306777715
2024-12-04 22:02:30.725625000,9.619625,3.542431784081459,7.100871284633874,3.98902521250248
2024-12-04 22:02:30.735652000,9.629652099609377,-1.954567257092893,10.7144218470335,0.808511481532082
2024-12-04 22:02:30.745677800,9.639677734375,-4.319201754242181,11.11043776538372,-0.0320823606982827
2024-12-04 22:02:30.755705000,9.649705078125,-1.502192468791455,8.444045303988457,0.2753971229996532
2024-12-04 22:02:30.765731000,9.65973095703125,0.202767136400938,5.114243878674507,1.108157129799202
2024-12-04 22:02:30.775757000,9.669757080078124,0.5588315681129694,3.641272097539901,1.9470593656808133
2024-12-04 22:02:30.785784000,9.6797841796875,0.5273047954708338,3.144751147389412,1.613710915906727
2024-12-04 22:02:30.795810000,9.68981005859375,0.2754237918108702,2.3627245718747374,0.1050788333886768
2024-12-04 22:02:30.805836800,9.6998369140625,-0.0609977817982435,1.0379343504726886,-1.8609173518843949
2024-12-04 22:02:30.815862800,9.70986279296875,-0.0365366366934031,-0.1404202780812978,-3.845039935415983
2024-12-04 22:02:30.825890000,9.71989013671875,0.0984306366790086,-0.8626420809745788,-5.505744365426898
2024-12-04 22:02:30.835916000,9.729916015625,0.2247153488367795,-1.2670114016503096,-6.670454499509931
2024-12-04 22:02:30.845942000,9.73994189453125,0.171388905384019,-1.1689046631634237,-7.164433363962173
2024-12-04 22:02:30.855969000,9.749968994140623,0.1779560453472659,-0.9859732770889996,-6.902135011184215
2024-12-04 22:02:30.865995000,9.7599951171875,0.2346072493085637,-0.8152198200643063,-6.69856065005362
2024-12-04 22:02:30.876022000,9.77002197265625,0.123970663061738,-0.6228881529599428,-5.79772649332881
2024-12-04 22:02:30.886048000,9.780048095703124,0.1932517045587301,-0.8630348796844481,-4.65639898839891
2024-12-04 22:02:30.896075000,9.790074951171874,-0.175633045759797,-1.3334388072818515,-3.856485458537936
2024-12-04 22:02:30.906101000,9.80010107421875,-0.9508370817780494,-2.376137011155486,-3.510539392997324
2024-12-04 22:02:30.916128000,9.8101279296875,-1.6283675100296735,-3.490487661832571,-3.315242738607526
2024-12-04 22:02:30.926154000,9.820154052734376,-1.685668775397539,-4.024463021108508,-2.891461153714358
2024-12-04 22:02:30.936180200,9.83018017578125,-1.1114730494141578,-3.944741249617934,-1.7654449074238538
2024-12-04 22:02:30.946207000,9.84020703125,-0.7277274145722389,-4.001379667162895,-0.5069363995723426
2024-12-04 22:02:30.956233000,9.85023291015625,-0.7091676755309104,-3.8945442632973193,0.6556698210339993
2024-12-04 22:02:30.966260000,9.860260009765623,-0.7953894035000354,-3.683261812007427,1.3736761251240968
2024-12-04 22:02:30.976286000,9.870285888671877,-0.8701497531909496,-3.021713965785503,1.755666148470342
2024-12-04 22:02:30.986313200,9.880313232421877,-0.8071043181478976,-2.181377824643254,1.7078125104054809
2024-12-04 22:02:30.996339200,9.890339111328124,-0.722339291793108,-1.527986396870017,1.3056278402924535
2024-12-04 22:02:31.006366000,9.900365966796874,-0.6154629713952541,-0.9641980831325052,0.6579330897908657
2024-12-04 22:02:31.016392000,9.910391845703124,-0.6979892789125443,-0.4561778338462114,0.022616905477643
2024-12-04 22:02:31.026418000,9.92041796875,-1.1336978868342935,0.3205821994423866,-0.0682845047403127
2024-12-04 22:02:31.036445000,9.93044482421875,-1.575848948893696,1.5027297905385493,-0.1241146015770733
2024-12-04 22:02:31.046471200,9.94047119140625,-2.2550061015643177,2.8016484885811805,-0.4693487194560468
2024-12-04 22:02:31.056498200,9.950498291015624,-3.3132807908847925,4.017794210869074,-1.1408087417528032
2024-12-04 22:02:31.066524000,9.96052392578125,-4.394321877156198,5.01942215320766,-2.285840361897648
2024-12-04 22:02:31.076551000,9.970551025390623,-5.07154806176424,5.626736889460682,-3.7937247587203977
2024-12-04 22:02:31.086577000,9.980576904296877,-5.471687197524309,5.768004724282026,-5.214764108043909
2024-12-04 22:02:31.096603000,9.990602783203125,-5.5239492996811865,5.586479113352298,-6.075166885659098
2024-12-04 22:02:31.106630100,10.000630126953125,-4.959430918103457,5.288817770770192,-6.418574080371856
2024-12-04 22:02:31.116656000,10.01065625,-3.999992012196779,5.318094134137034,-6.384808004370331
2024-12-04 22:02:31.126683000,10.020682861328124,-3.362508932173252,5.863045060935616,-6.076154143130779
2024-12-04 22:02:31.136708900,10.030708984375,-2.638027952176332,6.576741612067818,-5.98148380883336
2024-12-04 22:02:31.146735900,10.04073583984375,-2.253871982967853,7.467839972198009,-6.690602384525537
2024-12-04 22:02:31.156762000,10.05076220703125,-2.904996634852886,7.5120321651458735,-7.0152359051853415
2024-12-04 22:02:31.166789000,10.0607890625,-4.654411029452085,5.932166527956724,-6.631705374398827
2024-12-04 22:02:31.176815000,10.070815185546875,-6.858329771727323,4.144548951691389,-5.408236761876941
2024-12-04 22:02:31.186841000,10.080841064453123,-8.69812527899742,3.0135318283736705,-3.9678459386125207
2024-12-04 22:02:31.196867800,10.090867919921877,-9.699267483645675,2.7168209183841943,-2.761668652631342
2024-12-04 22:02:31.206893800,10.100893798828125,-8.852201741987466,2.985600449874997,-1.5113080876611171
2024-12-04 22:02:31.216921000,10.110921142578125,-6.061185122057795,3.3348160386055707,-0.0299509016275405
2024-12-04 22:02:31.226947000,10.120947021484374,-2.7813404445678,3.757141871732473,1.611564259266853
2024-12-04 22:02:31.236974000,10.13097412109375,0.4924702134549617,3.904393457138538,2.6197853162601588
2024-12-04 22:02:31.247000000,10.141,3.445893902346492,3.718940443632007,3.702557464107871
2024-12-04 22:02:31.257026000,10.151026123046876,5.757779682865738,3.3353923771888017,4.425544406154751
2024-12-04 22:02:31.267053000,10.161052978515626,5.778007647380233,3.690640231820941,4.446199948431551
2024-12-04 22:02:31.277079000,10.1710791015625,4.349183635529876,3.7958249458700415,3.658186991983652
2024-12-04 22:02:31.287106000,10.18110595703125,2.931092614617944,3.277051831901073,2.782746219712496
2024-12-04 22:02:31.297132000,10.191132080078123,1.5256155760854482,3.017285043427348,2.066046979632973
2024-12-04 22:02:31.307159000,10.201158935546877,0.4490086728692054,3.429349010258913,1.446687000799179
2024-12-04 22:02:31.317185000,10.21118505859375,-0.1792652647823095,4.289617932361364,1.0181637012716382
2024-12-04 22:02:31.327212000,10.2212119140625,-0.8111535935387015,5.230172105056047,0.70700282564722
2024-12-04 22:02:31.337238000,10.231238037109376,-1.1628142373338342,5.435163931769132,1.2169336577951908
2024-12-04 22:02:31.347264000,10.241263916015624,-0.0998679029405116,4.88459984126389,2.387021977785229
2024-12-04 22:02:31.357291000,10.251291015625,1.335679571945965,3.812665021511912,2.871994528961181
2024-12-04 22:02:31.367317000,10.26131689453125,2.9391181001633404,2.487409520685673,3.403404129402339
2024-12-04 22:02:31.377344000,10.271343994140626,4.082769079604745,0.9858920285463332,3.071456194075942
2024-12-04 22:02:31.387370000,10.281369873046875,4.570212989330291,-0.3962842138975858,2.769388140967488
2024-12-04 22:02:31.397397000,10.29139697265625,4.968960962992906,-1.4979454788714646,2.725391470591724
2024-12-04 22:02:31.407423000,10.301423095703123,5.283280594909191,-2.006911484575272,2.8275983378738165
2024-12-04 22:02:31.417450000,10.311449951171875,5.545433986258506,-2.342977084353566,2.9845456801250574
2024-12-04 22:02:31.427476000,10.32147607421875,5.979665361234545,-2.7938024512559174,2.9524574742078777
2024-12-04 22:02:31.437502000,10.331501953125,5.947163606080412,-3.122045394584537,2.913924622195959
2024-12-04 22:02:31.447529000,10.341529052734376,6.04377572209537,-3.3238708662211893,2.979742079235613
2024-12-04 22:02:31.457555000,10.351554931640624,6.068475279065966,-3.778424313735962,3.305491744443774
2024-12-04 22:02:31.467582000,10.36158203125,6.038185354742407,-4.21192854348123,3.500148055103421
2024-12-04 22:02:31.477608000,10.37160791015625,5.997792554077506,-4.683857488688826,3.874417421069741
2024-12-04 22:02:31.487635000,10.381635009765626,6.267145501542091,-5.158395739611983,4.158586244872212
2024-12-04 22:02:31.497661200,10.3916611328125,6.773759975683689,-5.671044817742705,4.420452051451802
2024-12-04 22:02:31.507687200,10.401687255859375,7.0496513850063085,-6.203482884448766,4.856643620584905
2024-12-04 22:02:31.517714000,10.4117138671875,7.174485971421003,-6.803482329252362,5.370193739208578
2024-12-04 22:02:31.527740000,10.421739990234377,6.927887292078137,-7.582007618647813,5.705958894735574
2024-12-04 22:02:31.537767000,10.431766845703123,6.104112994158268,-8.388690496513247,5.845659041848778
2024-12-04 22:02:31.547793000,10.44179296875,4.989435011222958,-8.899529894873499,6.087431908470392
2024-12-04 22:02:31.557820200,10.451820068359376,4.020388903537392,-9.017164340651036,6.134985102283954
2024-12-04 22:02:31.567846100,10.46184619140625,3.3599048871546984,-8.485605394867061,4.153761016672849
2024-12-04 22:02:31.577873000,10.471872802734374,2.0651216814816,-7.553325714042782,1.7998643327675758
2024-12-04 22:02:31.587899000,10.48189892578125,-0.1561132295146584,-6.261450504770875,0.4240178778670728
2024-12-04 22:02:31.597924900,10.4919248046875,-2.633493231356144,-4.455242794325947,-0.5323809296913444
2024-12-04 22:02:31.607952100,10.5019521484375,-5.047049580323696,-2.159767465859652,-0.9567522971712052
2024-12-04 22:02:31.617978000,10.51197802734375,-10.583697033536431,0.8277092992812395,-2.1829928586244582
2024-12-04 22:02:31.628005000,10.522005126953124,-21.044787093579767,4.984435595500469,-5.805255135267973
2024-12-04 22:02:31.638031400,10.53203125,-15.582560967361928,10.621108772563934,-5.550437493634224
2024-12-04 22:02:31.648058000,10.54205810546875,-0.5316229509308934,15.717770232796669,0.5541371997516602
2024-12-04 22:02:31.658084000,10.552083984375,4.062371019220352,18.36266865526437,1.685706769320369
2024-12-04 22:02:31.668111000,10.562111083984377,2.180143022151291,17.415460285377502,-0.6355375719789416
2024-12-04 22:02:31.678137000,10.57213720703125,-0.8955392651870846,15.53833604118824,0.1782921089012175
2024-12-04 22:02:31.688163300,10.582163330078124,-3.9226550900161263,14.579649999475478,4.202636106739938
2024-12-04 22:02:31.698190300,10.5921904296875,-5.639119985693693,10.342605134916305,4.722882508131861
2024-12-04 22:02:31.708216000,10.602216064453126,0.3053282239481806,3.4309430014520883,2.311662200896442
2024-12-04 22:02:31.718243000,10.6122431640625,7.61755999354422,-1.5100696319073437,1.0806536943890153
2024-12-04 22:02:31.728269000,10.62226904296875,9.027848816272616,-3.227568546807766,0.9802961082354188
2024-12-04 22:02:31.738296300,10.63229638671875,7.057082996311784,-3.944448988673091,0.8694701734289526
2024-12-04 22:02:31.748322300,10.642322265625,4.577896529570221,-5.113889073887467,1.907786508956552
2024-12-04 22:02:31.758348300,10.652348388671877,1.5959966877788303,-6.623915451174974,3.625244507324696
2024-12-04 22:02:31.768375000,10.662375,-0.9248483617797494,-8.482970954710245,4.699340012241899
2024-12-04 22:02:31.778401000,10.672401123046876,0.594373713876307,-9.882866978240012,5.519426269298791
2024-12-04 22:02:31.788428000,10.682427978515625,4.68437186795175,-7.539556131887435,5.965049391382932
2024-12-04 22:02:31.798454300,10.692454345703124,6.47504123300314,-2.950094252207875,6.320725700560212
2024-12-04 22:02:31.808481300,10.702481201171874,5.550589469325542,0.0138929162740707,6.452766272830963
2024-12-04 22:02:31.818507300,10.71250732421875,4.105042286211252,1.4010960469692946,5.594814980021119
2024-12-04 22:02:31.828534000,10.722533935546876,2.986745528256893,2.3253742076456545,4.032864938750863
2024-12-04 22:02:31.838560000,10.73256005859375,1.771202594167739,3.9466912146419286,2.4577339288681745
2024-12-04 22:02:31.848586000,10.7425859375,0.1747888500206172,7.035642733398079,1.1786405328232794
2024-12-04 22:02:31.858613200,10.75261328125,-1.6170190175414083,8.045586084139346,-0.8407193683061748
2024-12-04 22:02:31.868639200,10.76263916015625,-2.9575106659442185,5.685231164005399,-1.8053680447503924
2024-12-04 22:02:31.878666200,10.772666259765623,-3.738360598894953,3.120240390989184,-1.2546022941932082
2024-12-04 22:02:31.888692200,10.782692138671877,-3.4411101752012967,1.1837936047375202,-0.6753066147223115
2024-12-04 22:02:31.898719000,10.792718994140625,-2.260741430345923,-0.0756447313100099,-0.7221379970673472
2024-12-04 22:02:31.908745200,10.8027451171875,-0.8858064642671495,-1.026693410012126,-1.520100173664838
2024-12-04 22:02:31.918772200,10.812772216796876,0.0761119104303419,-1.9267904846340416,-2.640794786541164
2024-12-04 22:02:31.928798200,10.822798095703124,0.8544301329463719,-2.6805454899102448,-3.707985334375501
2024-12-04 22:02:31.938824200,10.83282421875,1.1338817189686,-2.8900913266658783,-4.21266708688885
2024-12-04 22:02:31.948851200,10.842851318359376,1.265467679339647,-2.5621196014940737,-4.153220626185834
2024-12-04 22:02:31.958877200,10.852877197265624,1.2881488822251557,-1.801942454215884,-3.484882973693311
2024-12-04 22:02:31.968904200,10.862904296875,1.2971020040094852,-1.3655606232076882,-3.011716303384304
2024-12-04 22:02:31.978930200,10.87293017578125,1.3206377778977154,-1.00404494035244,-2.449698798711598
2024-12-04 22:02:31.988957200,10.882957275390623,1.1876795062601566,-1.374951551887393,-1.9975527045995
2024-12-04 22:02:31.998983200,10.892983154296877,0.8429390171170235,-1.9980413648992776,-2.081559313802421
2024-12-04 22:02:32.009009200,10.903009033203125,0.3089256639182567,-2.609169521960616,-1.9922791481107471
2024-12-04 22:02:32.019036400,10.913036376953125,-0.1171311724305152,-2.93212488027513,-1.5396775653161108
2024-12-04 22:02:32.029062100,10.923062255859374,-0.1782242312967777,-2.768368150269985,-0.5973575519926846
2024-12-04 22:02:32.039089200,10.933089111328124,-0.44926118632555,-2.190757062885165,0.2257939378537237
2024-12-04 22:02:32.049115100,10.943115234375,-0.4712988306105136,-1.767715774965286,0.5886034599117934
2024-12-04 22:02:32.059142100,10.95314208984375,-0.6377519600927829,-1.516458456161618,0.6256435891479254
2024-12-04 22:02:32.069168000,10.963168212890626,-1.32139838700667,-1.0997650759637354,0.4681001806996762
2024-12-04 22:02:32.079195100,10.973195068359376,-1.8881660088159145,-0.4358902480989694,0.0516873710088431
2024-12-04 22:02:32.089221000,10.98322119140625,-2.0707249083161354,0.5296650948613881,-0.517144782114774
2024-12-04 22:02:32.099247000,10.9932470703125,-2.644921803343296,1.7980647359997033,-1.204711158951372
2024-12-04 22:02:32.109274000,11.003274169921877,-3.8281118892297146,3.202493142262101,-2.28652600607425
2024-12-04 22:02:32.119300000,11.013300048828125,-5.52177838538289,4.478583337903022,-3.852746564270556
2024-12-04 22:02:32.129327000,11.0233271484375,-7.604086179465055,5.328561167615652,-5.517427204436063
2024-12-04 22:02:32.139353300,11.033353271484376,-9.296024536651371,5.511292062681913,-6.595652648764848
2024-12-04 22:02:32.149380000,11.043380126953124,-9.771872116607428,5.031884744417667,-6.667238460072874
2024-12-04 22:02:32.159406000,11.053406005859374,-9.056437197375296,4.366816907376051,-5.694331585305929
2024-12-04 22:02:32.169432000,11.06343212890625,-7.065324170434475,4.065695779728889,-3.909726050338149
2024-12-04 22:02:32.179459000,11.073458984375,-4.701165766364336,4.103011657166481,-2.150596755801886
2024-12-04 22:02:32.189485000,11.083485107421875,-3.131322341495752,4.469027574050426,-1.3847674279808997
2024-12-04 22:02:32.199512300,11.09351220703125,-2.5281167941272256,5.252959106403589,-2.1644874801188707
2024-12-04 22:02:32.209538300,11.103538330078123,-2.3701906699717044,5.969163256442546,-3.8420699796944855
2024-12-04 22:02:32.219565000,11.11356494140625,-2.242536788352578,6.306059461826085,-4.948183547902107
2024-12-04 22:02:32.229591000,11.123591064453125,-2.595816119390726,5.853567038494348,-5.14930057900846
2024-12-04 22:02:32.239618000,11.1336181640625,-3.012430589133501,4.889368955361843,-4.963300453013181
2024-12-04 22:02:32.249644300,11.143644287109376,-3.4906080733418463,3.81393752566576,-4.48996397909522
2024-12-04 22:02:32.259670300,11.153670166015624,-4.723852229946852,3.128773241534829,-3.64535907459259
2024-12-04 22:02:32.269697300,11.163697265625,-6.091241822147369,2.736036490985751,-2.280296464034915
2024-12-04 22:02:32.279723300,11.17372314453125,-6.087782037082314,2.6101117712467907,-0.6543129995975643
2024-12-04 22:02:32.289750000,11.18375,-4.499118760931491,3.37336759531796,0.6852427561946213
2024-12-04 22:02:32.299776000,11.19377587890625,-1.896733200022578,5.069447290092707,2.347796175073087
2024-12-04 22:02:32.309803300,11.20380322265625,0.7340742993809283,7.021307334053516,3.662155311092734
2024-12-04 22:02:32.319829200,11.213829345703124,2.4920722517997027,8.148789853504299,4.410620977789163
2024-12-04 22:02:32.329856300,11.223856201171875,3.467793599465489,7.922910137063265,4.980428113424778
2024-12-04 22:02:32.339882200,11.23388232421875,4.544466553655266,8.360197392478584,4.976360425594449
2024-12-04 22:02:32.349908200,11.243908203125,5.4436535276949405,8.106182299399375,4.485328720510005
2024-12-04 22:02:32.359935200,11.253935302734376,5.783510920971632,6.543152061676978,3.679882106441259
2024-12-04 22:02:32.369961200,11.263961181640624,5.425822102928161,4.592386242693663,2.615502524374425
2024-12-04 22:02:32.379988200,11.27398828125,4.640808328296244,3.5797862399637697,2.647225696371496
2024-12-04 22:02:32.390014200,11.28401416015625,3.2312863982871174,3.155091339617968,3.389245255668461
2024-12-04 22:02:32.400041200,11.294041259765624,1.6060995641201734,3.0589217066735026,4.181259848973155
2024-12-04 22:02:32.410067200,11.304067138671876,1.137092643839121,2.666005507904291,5.410691169291734
2024-12-04 22:02:32.420093200,11.31409326171875,2.4182275556489823,2.066268513429165,6.6174190748929975
2024-12-04 22:02:32.430120200,11.3241201171875,3.589441957059502,1.4113520680457352,6.875701177766919
2024-12-04 22:02:32.440146200,11.334146240234375,3.193094322536885,0.5059434430122375,5.6406409116506575
2024-12-04 22:02:32.450173200,11.344173095703123,2.7848744639128444,-0.3580664191842079,4.2624218823999165
2024-12-04 22:02:32.460199200,11.35419921875,4.1039989146381615,-1.0473977598667144,3.147278327779472
2024-12-04 22:02:32.470226200,11.36422607421875,5.522695500227808,-1.731169128334522,1.7365768325969575
2024-12-04 22:02:32.480252200,11.374252197265625,6.0628463332682845,-2.319061955758929,0.5783402784422039
2024-12-04 22:02:32.490279200,11.384279052734374,6.4343514952182765,-2.975031709587574,0.0971411083251237
2024-12-04 22:02:32.500305200,11.39430517578125,6.524013061442971,-3.807539933583141,0.3815712134122848
2024-12-04 22:02:32.510331100,11.4043310546875,6.651530603331327,-4.286909842446447,0.5207521589569747
2024-12-04 22:02:32.520358100,11.414358154296876,6.778448425760865,-4.75483130557835,1.1492881085455418
2024-12-04 22:02:32.530384100,11.424384033203124,6.950978244808316,-5.280328759366274,2.1056813631460067
2024-12-04 22:02:32.540411100,11.4344111328125,7.219104865348338,-5.977873801642656,3.047361909522116
2024-12-04 22:02:32.550437000,11.44443701171875,7.517325595378876,-6.724293641725182,3.81887848919928
2024-12-04 22:02:32.560464100,11.454464111328123,8.028128753381967,-7.606917018976807,4.515253026391566
2024-12-04 22:02:32.570490000,11.464489990234377,8.476370533531904,-8.387424422100185,5.11983190793991
2024-12-04 22:02:32.580517400,11.474517333984377,8.692448402404784,-8.988472499173879,5.748685691305995
2024-12-04 22:02:32.590543400,11.48454345703125,8.627183610811828,-9.525594339782,6.281033741641044
2024-12-04 22:02:32.600569300,11.4945693359375,7.850243544781208,-9.874144742602107,6.604649609690904
2024-12-04 22:02:32.610596000,11.50459619140625,6.46769145476222,-10.01721115127802,7.019233450388908
2024-12-04 22:02:32.620622000,11.5146220703125,5.587397981762885,-9.451395131105183,5.619920779705048
2024-12-04 22:02:32.630649000,11.524649169921876,4.724166118201613,-8.183400563636422,2.151510948037356
2024-12-04 22:02:32.640675000,11.534675048828126,2.627206113910675,-6.946264075767994,-0.0921709186971187
2024-12-04 22:02:32.650702000,11.5447021484375,-0.0399853889077901,-5.112123817780613,-1.2638694503627717
2024-12-04 22:02:32.660728000,11.55472802734375,-2.72754368018955,-2.6791052279740573,-2.248993124885112
2024-12-04 22:02:32.670754000,11.564754150390623,-7.174034136000275,0.3790396491080522,-3.286821530765295
2024-12-04 22:02:32.680781000,11.574781005859377,-15.288450595259665,4.389575267150998,-4.863774787639081
2024-12-04 22:02:32.690807000,11.58480712890625,-16.19780065139532,9.085285106197,-6.534232842162251
2024-12-04 22:02:32.700834000,11.594833984375,-3.185267282173037,14.179406818819045,-3.1759435735106467
2024-12-04 22:02:32.710860000,11.604860107421874,3.965815309567749,17.974924890697,0.3995560021098703
2024-12-04 22:02:32.720887000,11.614886962890624,3.3769355169326065,19.86049664523601,0.510386649624072
2024-12-04 22:02:32.730913300,11.624913330078124,1.920240040077269,19.517690923547743,0.6615423663292079
