time,seconds_elapsed,z,y,x
2024-12-04 22:05:58.713934600,0.0619345703125,3.4951375334650274,1.2822171540886165,-0.6180430510163307
2024-12-04 22:05:58.724010800,0.0720107421875,3.604824819630384,0.6223685130000114,-0.2499438981175422
2024-12-04 22:05:58.734086700,0.082086669921875,2.752010305187106,0.1577276789739728,0.163045220734924
2024-12-04 22:05:58.744162800,0.092162841796875,2.2142548428505657,0.3336851343825459,0.2428733752094209
2024-12-04 22:05:58.754238700,0.10223876953125,1.5772814659148453,-0.524191631886363,-0.0145309949818998
2024-12-04 22:05:58.764314600,0.112314697265625,1.0157570054560898,-0.5871773726314305,-0.0117021282315254
2024-12-04 22:05:58.774390800,0.122390869140625,1.4156073874026536,0.4881999887898564,-0.0644138738520443
2024-12-04 22:05:58.784466700,0.132466796875,1.7540695269286632,0.887250452530384,-0.0258867939937859
2024-12-04 22:05:58.794542800,0.14254296875,1.887002079603076,0.7730527032032608,-0.0374250369004905
2024-12-04 22:05:58.804618500,0.152618408203125,2.475978026089072,0.5431938539981842,0.0231647486187517
2024-12-04 22:05:58.814694700,0.162694580078125,3.824392868706584,0.4300166798904538,1.366869806110114
2024-12-04 22:05:58.824770800,0.172770751953125,4.858531334027648,-0.9456748767092824,4.305472504097223
2024-12-04 22:05:58.834846700,0.1828466796875,1.9755366876244544,-2.9619343276053667,5.272115642294287
2024-12-04 22:05:58.844923000,0.1929228515625,2.395783376389742,-4.09701826197058,4.14106783157736
2024-12-04 22:05:58.854998000,0.202998046875,3.122816378957033,-1.5917574427738783,0.1997477885797619
2024-12-04 22:05:58.865074000,0.213073974609375,3.6130975579351183,0.1554547656059265,-1.9395633108370005
2024-12-04 22:05:58.875150000,0.223150146484375,3.5801615030169485,0.0010217442631721,-1.980373021739721
2024-12-04 22:05:58.885226000,0.23322607421875,2.420267244783044,-0.6182771520331501,-1.7781208491235971
2024-12-04 22:05:58.895302100,0.24330224609375,1.461122353386879,-0.8863339222073554,-2.030220902361721
2024-12-04 22:05:58.905378000,0.2533779296875,1.09856271443665,-0.7549649655878543,-1.960119484392553
2024-12-04 22:05:58.915454000,0.263453857421875,0.2617582545518875,-0.6162257724612951,-0.9324795873105526
2024-12-04 22:05:58.925529900,0.27352978515625,-0.0039706571966409,-0.8381009294360876,0.2877681634686887
2024-12-04 22:05:58.935606000,0.28360595703125,1.2062865915745495,-0.7985811122134328,0.5210218427438289
2024-12-04 22:05:58.945682200,0.29368212890625,1.7344325140446424,-0.7462740018710493,-0.4079772089745849
2024-12-04 22:05:58.955758000,0.303758056640625,0.9892372473210096,-0.3686769527867436,-1.7130352134898303
2024-12-04 22:05:58.965834000,0.313833984375,1.244818859064579,-0.5114776962637901,-2.211076943466812
2024-12-04 22:05:58.975910000,0.323909912109375,0.223505973047018,-0.9868833776712416,-1.5664154962465169
2024-12-04 22:05:58.985986000,0.333986083984375,0.0513870728880167,-0.2825488213852047,-0.8401971710629761
2024-12-04 22:05:58.996062000,0.34406201171875,0.0017383680999279,0.1403226629257202,-0.4886345808148384
2024-12-04 22:05:59.006138000,0.35413818359375,-1.116073821207881,-0.247834943139553,0.1540850846879184
2024-12-04 22:05:59.016214000,0.364214111328125,-1.927683049559593,-0.9682622638314962,0.3591168050199746
2024-12-04 22:05:59.026290000,0.3742900390625,-2.092782426345348,-0.599563975995779,-0.5261556985009461
2024-12-04 22:05:59.036366000,0.384365966796875,-3.164682174783945,-0.1038765540599822,-0.2823624319676309
2024-12-04 22:05:59.046442000,0.39444189453125,-3.851736218184232,-0.045543315295875,0.2487522041149437
2024-12-04 22:05:59.056518100,0.40451806640625,-3.4251229169964788,-0.6111471540227532,0.0790055860452353
2024-12-04 22:05:59.066594000,0.414593994140625,-2.282055874922872,-1.5571452713370322,-0.5424787645313889
2024-12-04 22:05:59.076670000,0.424669921875,-1.800363076069951,-1.4416165656670927,-0.4515465207837522
2024-12-04 22:05:59.086745900,0.434745849609375,-2.085072582620382,-1.402941382575035,0.242796145254746
2024-12-04 22:05:59.096822000,0.444822021484375,-2.935153872707486,-1.064836385923624,0.1882324881572276
2024-12-04 22:05:59.106898200,0.454898193359375,-3.763132636579871,-0.3704474695906042,0.3923522812761366
2024-12-04 22:05:59.116974000,0.46497412109375,-4.174156738969684,0.1327653794139623,0.6248026082791388
2024-12-04 22:05:59.127050000,0.475050048828125,-4.268220339545607,0.2294140280470251,0.859610677389428
2024-12-04 22:05:59.137126000,0.4851259765625,-4.227942105171084,0.5358771012440323,1.1428335986439138
2024-12-04 22:05:59.147202000,0.4952021484375,-3.902740429234505,1.2624348875150084,0.9410665791962296
2024-12-04 22:05:59.157278000,0.50527783203125,-3.672209087595344,1.1913012038886546,0.985986209635809
2024-12-04 22:05:59.167354000,0.51535400390625,-3.2245296175032854,1.2847720992684364,1.3041406704746186
2024-12-04 22:05:59.177430000,0.525429931640625,-2.814998968541622,1.3042425234138966,1.734739680297673
2024-12-04 22:05:59.187506000,0.535505859375,-2.966874122095108,0.9511538926422596,2.3337078823573885
2024-12-04 22:05:59.197582000,0.54558203125,-2.3159037839889525,1.089661615100503,2.7475562483876943
2024-12-04 22:05:59.207658000,0.555657958984375,-1.6351619924753904,1.201216740964353,2.884716355629265
2024-12-04 22:05:59.217734100,0.565734130859375,-1.0887509299963711,0.8778411114111542,2.596651401171088
2024-12-04 22:05:59.227809800,0.575809814453125,-0.6231570330291986,0.8678715060606599,1.839075960823893
2024-12-04 22:05:59.237886000,0.585885986328125,-0.3418266475230455,0.9072127518460154,0.910203165833652
2024-12-04 22:05:59.247962000,0.595962158203125,-0.3588970247894525,0.7664698176816105,0.0403897319249808
2024-12-04 22:05:59.258038000,0.6060380859375,-0.7984411192208528,0.6130588328629731,-0.9413432041805238
2024-12-04 22:05:59.268114200,0.6161142578125,-0.7570540468215942,0.4637354096189141,-1.455878022992611
2024-12-04 22:05:59.278190000,0.626190185546875,-0.5630997469514608,0.65112026797086,-1.5354760219730437
2024-12-04 22:05:59.288266000,0.636265869140625,-0.3010568302392959,0.8195309612616896,-1.3126026477411388
2024-12-04 22:05:59.298342000,0.646341796875,0.3538613687098026,0.7386334239900112,-0.8546247787356376
2024-12-04 22:05:59.308418000,0.65641796875,0.9952654215693472,0.665282941097021,-0.254038912346214
2024-12-04 22:05:59.318494200,0.666494140625,1.3740940582752228,0.6065016663044691,0.4810005788050591
2024-12-04 22:05:59.328570000,0.676570068359375,1.6297177555948494,0.562293691265583,0.7058854389898479
2024-12-04 22:05:59.338646000,0.68664599609375,1.6764420973688363,0.5161319518104195,0.492403431829065
2024-12-04 22:05:59.348722000,0.696721923828125,1.7126655033946037,0.3868392169430851,0.0027734102360904
2024-12-04 22:05:59.358798000,0.706798095703125,1.9277239660918712,0.4533373497232794,-0.1997609220559708
2024-12-04 22:05:59.368874000,0.7168740234375,2.4415491022646427,0.0069715925782918,0.5484165570825338
2024-12-04 22:05:59.378950100,0.7269501953125,2.744730669572949,-0.3112842097431421,0.5427835196316242
2024-12-04 22:05:59.389026000,0.737026123046875,3.0660277392864224,-0.1732642708018422,0.4747948560327291
2024-12-04 22:05:59.399102000,0.74710205078125,3.237639274445176,-0.1593038422495126,0.7033515365980565
2024-12-04 22:05:59.409178000,0.75717822265625,2.902348166170716,-0.2416799276411533,0.9952043390318752
2024-12-04 22:05:59.419254000,0.76725390625,2.5731156272828577,-0.2928153638556599,1.1334401126809417
2024-12-04 22:05:59.429330200,0.777330078125,2.2423259220808744,-0.3368365841507911,1.2691675567708909
2024-12-04 22:05:59.439405800,0.78740576171875,1.9563807362556456,-0.2742906961277127,1.1570055510550736
2024-12-04 22:05:59.449482000,0.79748193359375,1.3853484427392482,-0.2435857612624764,0.5930135679716244
2024-12-04 22:05:59.459558000,0.807557861328125,1.2115578099757431,-0.3053700172632932,0.2647883064301684
2024-12-04 22:05:59.469634000,0.817634033203125,1.2078905196398495,-0.2800909068390727,0.2785268723927438
2024-12-04 22:05:59.479711000,0.8277109375,1.49519354981482,-0.4726438154786825,0.8377440788224338
2024-12-04 22:05:59.489787100,0.837787109375,1.849441872015596,-0.6463388789132237,1.2434737280659376
2024-12-04 22:05:59.499862800,0.84786279296875,1.9210697688996792,-0.6660717533871531,1.1740493325755
2024-12-04 22:05:59.509939000,0.85793896484375,1.6466840879648923,-0.676750968311727,0.8528131262037902
2024-12-04 22:05:59.520015000,0.86801513671875,0.935583983066678,-0.7181444704517722,0.311329583254829
2024-12-04 22:05:59.530091000,0.878091064453125,0.1225280630379915,-0.8278431547939777,-0.1955732793740928
2024-12-04 22:05:59.540167200,0.888167236328125,-0.5222685548692941,-0.9395455801740288,-0.5664551217939704
2024-12-04 22:05:59.550242800,0.898242919921875,-0.9624117842376232,-1.0648813941091295,-0.890545986944437
2024-12-04 22:05:59.560319000,0.908319091796875,-1.4216858305335045,-1.2826046921014784,-1.1738793828360736
2024-12-04 22:05:59.570395000,0.918394775390625,-1.8852134426206348,-1.3514683849692344,-1.538358299411088
2024-12-04 22:05:59.580471000,0.928470947265625,-2.192068145483732,-1.3063403724759817,-1.8208204654261468
2024-12-04 22:05:59.590547200,0.938547119140625,-2.4650544810146093,-1.1978417115733029,-2.0865938008382914
2024-12-04 22:05:59.600623000,0.948623046875,-2.459168345585465,-1.135963932070136,-2.506656072947383
2024-12-04 22:05:59.610699000,0.958698974609375,-2.5016437977433204,-1.181515430672467,-2.959881778989732
2024-12-04 22:05:59.620775000,0.96877490234375,-2.634807821086049,-1.4993486236676572,-3.0893688673853874
2024-12-04 22:05:59.630851000,0.97885107421875,-2.513477443400025,-1.7515476072356104,-4.14299879963994
2024-12-04 22:05:59.640927000,0.988927001953125,-1.8467507332354784,-1.811054858215153,-5.151621130910516
2024-12-04 22:05:59.651003100,0.999003173828125,-1.7442898911923168,-2.077208717377484,-5.248528430479765
2024-12-04 22:05:59.661079000,1.0090791015625,-2.5765233898997306,-2.298924299876392,-6.139293028610944
2024-12-04 22:05:59.671155000,1.019155029296875,-3.0349042867481706,-1.2345149071931838,-7.643481785786151
2024-12-04 22:05:59.681231000,1.029231201171875,-3.871821559357643,-0.9740157127916812,-8.22995364049673
2024-12-04 22:05:59.691307000,1.03930712890625,-4.464983267095684,-0.7098591649264097,-7.852274173825979
2024-12-04 22:05:59.701383200,1.049383056640625,-4.731989359173179,-0.2879258382484316,-7.082567566180229
2024-12-04 22:05:59.711458800,1.059458740234375,-4.526759047529101,0.1082300730943679,-5.882301550069451
2024-12-04 22:05:59.721535000,1.069534912109375,-4.249870443862676,0.501371312791109,-4.47343048518449
2024-12-04 22:05:59.731611100,1.079611083984375,-4.243714259320497,0.985959540824592,-3.273841053161025
2024-12-04 22:05:59.741687000,1.08968701171875,-4.1601404885768885,1.714335774694383,-2.71815304377079
2024-12-04 22:05:59.751763200,1.09976318359375,-3.730990946909785,2.362235619314015,-2.757310749682784
2024-12-04 22:05:59.761838800,1.1098388671875,-3.1509780590802428,2.755047188664973,-3.2288352057427168
2024-12-04 22:05:59.771915000,1.1199150390625,-2.175449019116164,3.271980812247097,-3.5679385657817124
2024-12-04 22:05:59.781991000,1.129990966796875,-0.6826391495674848,3.557665009048581,-3.488073586428165
2024-12-04 22:05:59.792067000,1.140067138671875,1.0709136600106954,3.606587737649679,-3.3500478022679685
2024-12-04 22:05:59.802143000,1.15014306640625,2.147619931948185,3.694332072076201,-3.43991073628366
2024-12-04 22:05:59.812219000,1.160218994140625,2.4851029973089696,3.5900504443466663,-3.1160604749560354
2024-12-04 22:05:59.822295000,1.170294921875,2.5106980418145657,3.7903099818408488,-2.8291473208814857
2024-12-04 22:05:59.832371000,1.180370849609375,1.998826377797127,4.25640890572071,-2.0374302492186427
2024-12-04 22:05:59.842447000,1.190447021484375,0.6683329763174056,4.237263475745916,-1.1755866251453757
2024-12-04 22:05:59.852523000,1.20052294921875,-0.3333358825534582,4.605852457988262,-0.6101402420025318
2024-12-04 22:05:59.862599200,1.21059912109375,-1.0936626674354075,4.882223759782314,-0.0921251798592507
2024-12-04 22:05:59.872674800,1.2206748046875,-1.184226735457778,4.855667761290073,0.378658686966449
2024-12-04 22:05:59.882751000,1.2307509765625,-0.4713853398501872,4.78672340440154,0.3535064177922904
2024-12-04 22:05:59.892827100,1.2408271484375,0.4683814818590879,4.418363554739952,0.3811250770799815
2024-12-04 22:05:59.902903000,1.250903076171875,1.2818927444398402,4.261647390896082,0.2858313501872122
2024-12-04 22:05:59.912979200,1.260979248046875,2.353486203408241,4.2144443256944415,-0.1280795596852898
2024-12-04 22:05:59.923055000,1.27105517578125,3.299178323513269,3.6352263876348734,0.6393098570592701
2024-12-04 22:05:59.933131000,1.281131103515625,4.183877922517061,1.952293759202957,2.601082077094913
2024-12-04 22:05:59.943207000,1.29120703125,3.875728503668308,3.5492402950525284,0.5844419563181698
2024-12-04 22:05:59.953283000,1.301282958984375,4.046247567415238,4.234492841988802,0.1440807002849876
2024-12-04 22:05:59.963359200,1.311359130859375,2.864980266284942,1.8447680349856608,3.112424748802185
2024-12-04 22:05:59.973435100,1.32143505859375,1.5317898808062076,3.264243788254261,1.679816249977052
2024-12-04 22:05:59.983511000,1.331510986328125,1.2464578584432602,2.956424624273181,1.2498530538395047
2024-12-04 22:05:59.993587000,1.3415869140625,0.2866366752207279,2.9910335808396336,1.302687987448275
2024-12-04 22:06:00.003663000,1.3516630859375,-0.4708569320619106,2.823218515354395,1.3968744837515057
2024-12-04 22:06:00.013739000,1.361739013671875,-0.3429623735547065,2.3768226553320884,1.0121719865761696
2024-12-04 22:06:00.023815200,1.371815185546875,0.4578752854138612,2.1044301940411327,0.8993731442615389
2024-12-04 22:06:00.033891000,1.38189111328125,1.5910732599020003,1.7913649461001158,1.306906774187088
2024-12-04 22:06:00.043967000,1.391967041015625,2.5045804357171058,1.6432067672431467,2.0748405269414185
2024-12-04 22:06:00.054043100,1.402043212890625,2.6797511246621606,1.1539940942794085,3.122300830650329
2024-12-04 22:06:00.064119000,1.412119140625,1.940956372630596,0.946960532605648,3.4885797823846336
2024-12-04 22:06:00.074195200,1.4221953125,0.7448328631520271,0.7472206350713968,3.447258468697965
2024-12-04 22:06:00.084270800,1.432270751953125,0.2180120518058538,0.725578712105751,2.997974486018717
2024-12-04 22:06:00.094347000,1.442346923828125,0.6997825920701026,0.5936591358661651,2.5996166807174683
2024-12-04 22:06:00.104423200,1.452423095703125,1.6213386343061924,0.365142056658864,2.854077763998508
2024-12-04 22:06:00.114499000,1.4624990234375,2.305367776927352,1.2520388734459875,2.8143849282965063
2024-12-04 22:06:00.124575200,1.4725751953125,2.034568722307682,0.0337526319980621,5.35627802658081
2024-12-04 22:06:00.134651000,1.48265087890625,0.7069768874883652,-1.713919887369871,7.769083849442005
2024-12-04 22:06:00.144727000,1.49272705078125,1.3334855690330265,0.8690151231378317,5.527556968784332
2024-12-04 22:06:00.154803000,1.502802978515625,-0.1396796888470649,-0.3754045074760914,5.676862564110755
2024-12-04 22:06:00.164879000,1.512879150390625,-1.5168366418242454,0.918670257666707,4.813616379763186
2024-12-04 22:06:00.174955000,1.522955078125,-2.836092025452852,1.527482539001107,6.742501498588919
2024-12-04 22:06:00.185031200,1.53303125,-4.482403188452125,2.542648592826724,10.075963784497976
2024-12-04 22:06:00.195107000,1.543107177734375,-6.633445496064424,3.436881159329414,12.159139009064436
2024-12-04 22:06:00.205183000,1.553182861328125,-8.070921600925923,3.416628644895553,11.663064633637664
2024-12-04 22:06:00.215259100,1.563259033203125,-7.793245061752199,3.2042209889680144,8.82494548627138
2024-12-04 22:06:00.225335000,1.5733349609375,-5.89140489397943,2.405087211307883,6.028508594858646
2024-12-04 22:06:00.235411200,1.5834111328125,-3.70805956865549,1.5219617297530172,4.551101753886043
2024-12-04 22:06:00.245486800,1.59348681640625,-2.307689497873187,1.3864713092893362,4.459592806228995
2024-12-04 22:06:00.255563000,1.60356298828125,-2.89310921318233,1.4267162259161472,5.050301860117912
2024-12-04 22:06:00.265639200,1.61363916015625,-4.557425988471508,1.466504630947113,5.403188830837607
2024-12-04 22:06:00.275715000,1.623715087890625,-5.149446709480881,1.4152777170568704,4.518662834835053
2024-12-04 22:06:00.285791200,1.633791259765625,-4.377285109898447,1.1257774690985678,2.710732538381219
2024-12-04 22:06:00.295867000,1.643866943359375,-2.636497673869133,0.7571744583308696,1.0041885866068303
2024-12-04 22:06:00.305943000,1.653943115234375,-0.5291618215143681,0.514545851662755,0.2742721375577152
2024-12-04 22:06:00.316019000,1.66401904296875,1.1413310120612383,0.4019096525639295,0.5448397215090691
2024-12-04 22:06:00.326095000,1.67409521484375,1.8524048134744169,0.6102946288466453,1.491810337117314
2024-12-04 22:06:00.336171300,1.684171142578125,1.3571043450295923,0.9080185152709483,2.5372429343909024
2024-12-04 22:06:00.346247000,1.694246826171875,0.3370388287246227,0.8873276094198227,3.212422415602207
2024-12-04 22:06:00.356323000,1.704322998046875,-0.3085340342521667,1.162315347900987,2.3729537049442526
2024-12-04 22:06:00.366399000,1.71439892578125,-0.5376993482351303,0.9806243172764778,0.6614655747659504
2024-12-04 22:06:00.376475100,1.72447509765625,-0.3192506585776806,0.7238064417362212,-1.095017150784284
2024-12-04 22:06:00.386551000,1.734551025390625,0.3896148191362619,0.7720441106826067,-2.4468920707277952
2024-12-04 22:06:00.396627000,1.744626953125,1.2165315067350864,0.7065881804317236,-2.7573873220503327
2024-12-04 22:06:00.406703000,1.754703125,1.8774135825246567,0.4789654197156429,-2.0821540648251773
2024-12-04 22:06:00.416779000,1.764779052734375,2.372531095618009,0.2841109561353921,-1.695580074689537
2024-12-04 22:06:00.426855200,1.774855224609375,2.480204119351506,0.2410936521857976,-1.868873717716336
2024-12-04 22:06:00.436931000,1.78493115234375,2.323529456561804,0.1276812080174684,-1.8939774715736508
2024-12-04 22:06:00.447007000,1.795007080078125,2.201741982758045,-0.0764011026352644,-1.7704637584991751
2024-12-04 22:06:00.457083000,1.805082763671875,2.0626924085080622,-0.0933592516988515,-1.4702062619440257
2024-12-04 22:06:00.467159000,1.815158935546875,1.970685155940056,-0.237290168249607,-1.0980172093831002
2024-12-04 22:06:00.477235200,1.825235107421875,1.7096411871373651,-0.1967208419740199,-0.9075738402433692
2024-12-04 22:06:00.487311000,1.83531103515625,1.032769515055418,-0.1609264750152826,-0.665203884511441
2024-12-04 22:06:00.497387300,1.84538720703125,0.5548936441421508,-0.2120879224538803,-0.4516679552063345
2024-12-04 22:06:00.507463000,1.855462890625,0.7332528999954462,-0.1420610310256481,-0.3361144073560834
2024-12-04 22:06:00.517539000,1.8655390625,1.0177928951978683,-0.072811553710699,-0.2480487320207059
2024-12-04 22:06:00.527615000,1.875614990234375,1.0552338603198528,-0.1025502738922834,0.0118085112154483
2024-12-04 22:06:00.537691100,1.885691162109375,0.9125742788791656,-0.136081956616044,0.0530335249207913
2024-12-04 22:06:00.547767000,1.89576708984375,0.6011702421486378,0.0147281980544328,-0.0492703729949891
2024-12-04 22:06:00.557843000,1.905843017578125,0.2147755541026592,0.077662500873208,-0.0024767653770744
2024-12-04 22:06:00.567919000,1.915919189453125,0.2925041059494018,0.0304161810517311,0.153248341602832
2024-12-04 22:06:00.577995000,1.9259951171875,0.6874947729051113,-0.0690191756904125,0.5081351078376174
2024-12-04 22:06:00.588071200,1.9360712890625,1.087113684183359,-0.266205297088623,0.8509754624478518
2024-12-04 22:06:00.598147000,1.94614697265625,0.4244096536636352,-0.1973468649178743,0.5047771757118403
2024-12-04 22:06:00.608223000,1.956222900390625,0.4400450296908617,-0.327237565678358,0.4476138575099408
2024-12-04 22:06:00.618299000,1.966298828125,-1.2794412596344946,-0.2333563359320163,0.0173126615896821
2024-12-04 22:06:00.628375000,1.976375,-1.8952549441635609,-0.0074140756487846,-0.2377317745372653
2024-12-04 22:06:00.638451200,1.986451171875,-2.0974071635365483,-0.1407382579892873,-0.4092313737541437
2024-12-04 22:06:00.648527000,1.996527099609375,-1.7600860107392071,-0.2564011114329099,-0.4278437197655439
2024-12-04 22:06:00.658603000,2.00660302734375,-1.4880226352721453,-0.48501346770823,-0.43930210236907
2024-12-04 22:06:00.668679000,2.016678955078125,-1.5876345176249742,-0.5575795222252607,-0.5195499435603619
2024-12-04 22:06:00.678755000,2.026755126953125,-0.9958037662297486,-0.7494248671174049,-0.171369835357368
2024-12-04 22:06:00.688831000,2.0368310546875,-0.5583154352843761,-0.8245598953396082,0.0137973469451069
2024-12-04 22:06:00.698907100,2.0469072265625,-1.1310732374191284,-0.9000508973926306,0.0584589109703898
2024-12-04 22:06:00.708983000,2.056983154296875,-1.4922779546290634,-0.7952431999623775,-0.0676429189011454
2024-12-04 22:06:00.719059000,2.067058837890625,-1.8597300417959688,-0.57292965157032,-0.6673806440286338
2024-12-04 22:06:00.729135000,2.077135009765625,-1.8660697662115096,-0.5110556714594364,-0.8460343527838587
2024-12-04 22:06:00.739211000,2.0872109375,-1.9234651396036144,-0.436886857920885,-0.8777337055139243
2024-12-04 22:06:00.749287200,2.097287109375,-1.76951785595119,-0.4319575848251581,-0.6672383129484951
2024-12-04 22:06:00.759363000,2.107363037109375,-1.4518331315159796,-0.4110778784036636,-0.4416689776308834
2024-12-04 22:06:00.769439000,2.11743896484375,-0.908209653928876,-0.6022966158300638,-0.4020392702929675
2024-12-04 22:06:00.779515100,2.12751513671875,-0.2878945663273334,-0.8944213670730591,-0.7893317839615046
2024-12-04 22:06:00.789591000,2.137591064453125,0.0622509967297315,-1.1410130321532488,-1.4215863156817852
2024-12-04 22:06:00.799667200,2.147667236328125,-0.1843593730509281,-1.3137953646570444,-2.169190543243289
2024-12-04 22:06:00.809743000,2.1577431640625,-0.7056359942734242,-1.321912620139122,-2.541545600020885
2024-12-04 22:06:00.819819000,2.167819091796875,-1.2788052998185158,-1.1056932969689368,-2.4657161597937343
2024-12-04 22:06:00.829895000,2.17789501953125,-2.150904944968224,-0.5195867684394121,-2.0044871800377964
2024-12-04 22:06:00.839971000,2.18797119140625,-3.755672383701801,0.3695809158891439,-1.5751494223222136
2024-12-04 22:06:00.850047200,2.198047119140625,-5.124860549756884,1.0792723230332135,-0.6677735888689756
2024-12-04 22:06:00.860123100,2.208123046875,-5.7562131642013785,1.617012295539677,0.3351715735480189
2024-12-04 22:06:00.870199300,2.21819921875,-5.063073078885674,1.552755219684541,0.8565154147878289
2024-12-04 22:06:00.880275200,2.228275146484375,-2.937425324770808,1.381089031729102,0.8600359901294111
2024-12-04 22:06:00.890351000,2.23835107421875,-1.288277477040887,1.0904165251210332,0.6513131601944565
2024-12-04 22:06:00.900427000,2.248427001953125,-0.2605588156342506,0.8841904804378747,0.1726180818527936
2024-12-04 22:06:00.910503200,2.258503173828125,0.0728016168385744,1.0800047289609909,-0.6722650550693273
2024-12-04 22:06:00.920579000,2.2685791015625,-0.0489408487796783,0.5200479562103748,-1.2140016959965227
2024-12-04 22:06:00.930655200,2.2786552734375,-0.0265355402261018,0.4725888704210519,-1.8362281701773404
2024-12-04 22:06:00.940731100,2.288731201171875,0.7144044071406126,0.3492687802225351,-1.955236534656584
2024-12-04 22:06:00.950807000,2.29880712890625,1.7817700192809105,0.1063151793837547,-1.8094123517051337
2024-12-04 22:06:00.960883200,2.30888330078125,2.8903853411763905,-0.0497328759402036,-1.849397740612924
2024-12-04 22:06:00.970959000,2.318958984375,3.635615679213404,-0.0708484369441866,-1.886807141552865
2024-12-04 22:06:00.981035300,2.32903515625,3.3194700009137392,0.1427472597241401,-1.949524879011512
2024-12-04 22:06:00.991111200,2.339111083984375,1.830444326078892,0.2146744318157434,-1.98022572222352
2024-12-04 22:06:01.001187000,2.34918701171875,0.2732534620344639,0.4685618068620562,-1.7240724480718372
2024-12-04 22:06:01.011263200,2.35926318359375,-0.7006710653424263,0.7041063004881143,-1.111165006378293
2024-12-04 22:06:01.021339100,2.369339111328125,-1.0821206982016562,0.8377057926386594,-0.451159713423252
2024-12-04 22:06:01.031415300,2.379415283203125,-0.793468591505289,0.8241185813128947,0.1270119304537773
2024-12-04 22:06:01.041491000,2.389490966796875,-0.2451993339389562,0.7809770664617419,0.4382964324578642
2024-12-04 22:06:01.051567000,2.399567138671875,0.280524914342165,0.5260165092259645,0.5409639029890299
2024-12-04 22:06:01.061643000,2.40964306640625,0.8369453296601772,0.405968864826858,0.6202312087103724
2024-12-04 22:06:01.071719200,2.41971923828125,1.3272060503721237,0.1005477018982172,0.7710670823439956
2024-12-04 22:06:01.081795300,2.42979541015625,1.827050591987372,-0.2025131616398692,0.9836357740521432
2024-12-04 22:06:01.091871200,2.439871337890625,2.335180146867037,-0.3702975397258997,1.2041200611904264
2024-12-04 22:06:01.101947100,2.449947021484375,2.776689988413453,-0.5561854375183582,1.3951894532740114
2024-12-04 22:06:01.112023000,2.46002294921875,3.151277918809652,-0.5883993156418204,1.310959264448285
2024-12-04 22:06:01.122099200,2.47009912109375,3.3077994368642565,-0.6744222331032157,1.233628772008419
2024-12-04 22:06:01.132175000,2.480175048828125,3.511071015655994,-0.7350678404629231,1.0559858477309343
2024-12-04 22:06:01.142251300,2.490251220703125,3.632988253319264,-0.8058972804456949,0.831067085276544
2024-12-04 22:06:01.152327200,2.5003271484375,3.494140923643112,-0.8927151476770638,0.6713000094294548
2024-12-04 22:06:01.162403000,2.510403076171875,3.0848125192552804,-0.8472130411744118,0.6103960433945059
2024-12-04 22:06:01.172479200,2.520479248046875,2.596748431804776,-0.7718167316675185,0.3587219604834914
2024-12-04 22:06:01.182555100,2.53055517578125,1.9326731129318475,-0.8691749898746609,-0.3463210363328456
2024-12-04 22:06:01.192631300,2.54063134765625,1.8476012125849723,-0.9449661439180372,-0.779095198237896
2024-12-04 22:06:01.202707000,2.55070703125,1.919026280373335,-0.9871230316460132,-0.5459311700075864
2024-12-04 22:06:01.212783000,2.560783203125,1.928362263995409,-1.3676508734852075,-0.016758827099204
2024-12-04 22:06:01.222859300,2.570859375,2.189049089923501,-1.3304028005868196,0.3800263220578432
2024-12-04 22:06:01.232935200,2.58093505859375,1.9646902994394304,-1.2504442977309227,0.4203562866196036
2024-12-04 22:06:01.243011300,2.59101123046875,1.7386100919902323,-1.259211249293387,0.4681485498860478
2024-12-04 22:06:01.253087000,2.6010869140625,1.846441521155834,-1.3084879058986902,0.4559297043040394
2024-12-04 22:06:01.263163100,2.6111630859375,0.1507376739561557,-1.1127490606993435,-0.1567673095092177
2024-12-04 22:06:01.273239000,2.621239013671875,-1.4940280131667851,-1.2999974331900477,-0.8493018301472067
2024-12-04 22:06:01.283315200,2.631315185546875,-1.8994331066310404,-1.377575470650196,-1.1140122125029563
2024-12-04 22:06:01.293391000,2.64139111328125,-1.308620592367649,-1.0505693756401535,-0.5263739443615079
2024-12-04 22:06:01.303467000,2.651467041015625,-1.2840315100342037,-0.8579229434981942,0.3426581299111247
2024-12-04 22:06:01.313543200,2.661543212890625,-1.309414957615733,-1.0698889931380748,0.9234303116753696
2024-12-04 22:06:01.323619000,2.671619140625,-0.1189449438542127,-0.8931725360557436,1.3784791414916515
2024-12-04 22:06:01.333695200,2.6816953125,-0.4586053532540798,-0.7661024456739425,1.0839829849421978
2024-12-04 22:06:01.343771100,2.691771240234375,-1.3468851488322018,-1.032316510590911,0.6097492699235677
2024-12-04 22:06:01.353847000,2.701846923828125,-2.125271322017908,-0.9113353847339748,-0.0738183926656842
2024-12-04 22:06:01.363923200,2.711923095703125,-2.3501246180206534,-0.6860194396555424,-0.6936220236137509
2024-12-04 22:06:01.373999000,2.7219990234375,-2.553004567146301,-0.5130716874569654,-1.0565566333562135
2024-12-04 22:06:01.384075300,2.7320751953125,-2.2824989425152538,-0.4935246909439563,-1.056184877434373
2024-12-04 22:06:01.394151200,2.742151123046875,-1.3525959276944397,-0.7010472051784395,-0.8815914038553834
2024-12-04 22:06:01.404227300,2.752227294921875,-0.6488771652191877,-0.9616244332522154,-0.8443971069708466
2024-12-04 22:06:01.414303000,2.762302978515625,-0.5653530788362026,-1.057948964497447,-0.8517308108597993
2024-12-04 22:06:01.424379100,2.772379150390625,-1.2628975365906954,-0.8070446969151497,-0.9630635261446236
2024-12-04 22:06:01.434455000,2.782455078125,-2.452306058600545,-0.480319172412157,-1.121720887184143
2024-12-04 22:06:01.444531200,2.79253125,-3.3091011671125887,-0.1136772325843572,-1.0044503062829375
2024-12-04 22:06:01.454607400,2.802607421875,-3.4651422081738708,0.1602092666566371,-0.6568015284776687
2024-12-04 22:06:01.464683000,2.81268310546875,-3.149778035640717,0.2155439081266522,-0.2469569912612438
2024-12-04 22:06:01.474759200,2.82275927734375,-2.595665312743187,0.1433452256172895,0.1169461712524294
2024-12-04 22:06:01.484835000,2.8328349609375,-2.070893835142255,0.0811211168944835,0.4632733450651168
2024-12-04 22:06:01.494911200,2.8429111328125,-1.7774433882534504,0.060036243289709,0.4427577957808971
2024-12-04 22:06:01.504987100,2.852987060546875,-1.4297270981699228,-0.0445180639013648,0.2865072036221623
2024-12-04 22:06:01.515063000,2.86306298828125,-1.0088017794907091,-0.0845657043904066,0.2287131863012909
2024-12-04 22:06:01.525139200,2.87313916015625,-0.4131429942399263,-0.2089914177432656,0.0173380882918834
2024-12-04 22:06:01.535214000,2.883214111328125,0.0520849920243024,-0.2232332935854792,-0.0068383215874433
2024-12-04 22:06:01.545290200,2.893290283203125,0.0978846201688051,-0.1155158461883664,0.0139107441917061
2024-12-04 22:06:01.555366100,2.9033662109375,0.0391401702553033,-0.0234714764803647,0.011949088729918
2024-12-04 22:06:01.565442000,2.913442138671875,-0.0770540135860443,0.1424284030333161,0.0701367815434932
2024-12-04 22:06:01.575518200,2.923518310546875,-0.1539455300867557,0.234270820428431,0.3778668059363961
2024-12-04 22:06:01.585594000,2.933593994140625,-0.1191910275697708,0.2679147313550114,0.5394280717238783
2024-12-04 22:06:01.595670300,2.943670166015625,0.0118920978456735,0.2512161100104451,0.5445230567753314
2024-12-04 22:06:01.605746000,2.953745849609375,0.3960258552223444,0.2044032131701707,0.7742448355972766
2024-12-04 22:06:01.615822000,2.963822021484375,0.8316045531541109,0.2161649626344442,1.1207631480678917
2024-12-04 22:06:01.625898200,2.973898193359375,1.0073147558033466,0.2324550031781196,1.4215788630276918
2024-12-04 22:06:01.635974100,2.98397412109375,0.9544020807832478,0.3671709321379661,1.5079834732830524
2024-12-04 22:06:01.646050300,2.99405029296875,0.5690992796272039,0.5090566065967083,1.5316820365175603
2024-12-04 22:06:01.656126200,3.004126220703125,0.0829991857260465,0.3847013281315565,1.613399658000469
2024-12-04 22:06:01.666202000,3.0142021484375,0.6556441751360893,0.15249211640805,1.6090055146947502
2024-12-04 22:06:01.676278000,3.024278076171875,1.653070574131608,-0.1329921739071607,1.843439416730404
2024-12-04 22:06:01.686354200,3.034354248046875,2.4950550670027734,-0.2499664022102951,2.0087056745156646
2024-12-04 22:06:01.696430000,3.04443017578125,3.153253602796793,-0.3209256060525775,2.002842627701164
2024-12-04 22:06:01.706506200,3.05450634765625,3.3264106138318774,-0.426843895073235,1.980449886368215
2024-12-04 22:06:01.716582100,3.06458203125,2.7777129017204043,-0.4715194876238703,1.7827563999697564
2024-12-04 22:06:01.726658000,3.074657958984375,1.8229694601535795,-0.4668026882350444,1.5500293018519875
2024-12-04 22:06:01.736734200,3.084734130859375,0.6365016677707434,-0.4563163655340671,1.0624033135578037
2024-12-04 22:06:01.746810000,3.09481005859375,-0.2435135728091001,-0.4488619578748941,0.5202914095774293
2024-12-04 22:06:01.756886300,3.10488623046875,-0.4641600647717714,-0.4551663187161088,0.4942389766931533
2024-12-04 22:06:01.766962200,3.114962158203125,-0.1729752247273921,-0.5381938537538051,0.8488494102045894
2024-12-04 22:06:01.777038000,3.1250380859375,0.3523193999648094,-0.639767976090312,1.3846893943086265
2024-12-04 22:06:01.787114200,3.1351142578125,0.719340109977126,-0.7835264586836099,1.7556816383004188
2024-12-04 22:06:01.797190100,3.145190185546875,0.8068652486950159,-0.959422539293766,1.8273238559708
2024-12-04 22:06:01.807266300,3.155266357421875,0.5523410370498896,-1.077617249302566,1.438271931414306
2024-12-04 22:06:01.817342000,3.165342041015625,0.2854021649897098,-1.2804820008590816,0.75476798171103
2024-12-04 22:06:01.827418000,3.175418212890625,-0.1177314764112234,-1.4629673967316743,0.1998135472923517
2024-12-04 22:06:01.837494000,3.185493896484375,-0.3619955753266811,-1.631456708216667,-0.3285518631473183
2024-12-04 22:06:01.847569200,3.195569091796875,-0.1873930416584014,-1.628601611046493,-0.8600316062152386
2024-12-04 22:06:01.857645000,3.20564501953125,-0.069749243530631,-1.4947148263871668,-1.4963786679461597
2024-12-04 22:06:01.867721000,3.215720947265625,-0.3375052771925926,-1.2868755012884736,-2.0654761940076947
2024-12-04 22:06:01.877796600,3.225796630859375,-1.0514075800299645,-1.0595958549216389,-2.4226646613135934
2024-12-04 22:06:01.887872800,3.235872802734375,-2.0591519594222305,-0.8448238079503179,-2.7339336734876034
2024-12-04 22:06:01.897948700,3.24594873046875,-3.277572640904784,-0.5020695241883397,-3.086560824227333
2024-12-04 22:06:01.908024800,3.25602490234375,-4.143749910268188,-0.1350008833810687,-3.0471988279148934
2024-12-04 22:06:01.918100700,3.266100830078125,-4.822103929862379,0.3239756412729621,-2.829803154441714
2024-12-04 22:06:01.928177000,3.276177001953125,-4.654174882608652,0.7272802553266287,-2.412305764384568
2024-12-04 22:06:01.938252800,3.286252685546875,-4.191121902295947,0.9369871278628706,-1.990610338115692
2024-12-04 22:06:01.948328700,3.29632861328125,-4.94763701993525,1.69798552839607,-1.7021195594608782
2024-12-04 22:06:01.958404900,3.30640478515625,-3.601505904340744,1.4966805735021829,-1.7137120898380875
2024-12-04 22:06:01.968480800,3.316480712890625,-3.2181600824713703,1.81473442351073,-1.4716972311541436
2024-12-04 22:06:01.978557000,3.326556884765625,-2.843456416741013,2.115603622223437,-1.3212968263283371
2024-12-04 22:06:01.988632600,3.336632568359375,-2.285707383167744,2.101762436136603,-1.221150106446445
2024-12-04 22:06:01.998708700,3.346708740234375,-1.6731839723557234,2.116870281158388,-1.3272405371636151
2024-12-04 22:06:02.008785000,3.356784912109375,-1.2658721684873104,1.965826025471091,-1.4329782089203595
2024-12-04 22:06:02.018860800,3.36686083984375,-1.0860890173107385,1.8369573612347243,-1.64937405770123
2024-12-04 22:06:02.028937000,3.37693701171875,-1.1970534838050604,1.7877523085609075,-1.9855033703655005
2024-12-04 22:06:02.039012600,3.3870126953125,-1.1959206803828475,1.739462909427285,-2.1726669871822
2024-12-04 22:06:02.049088800,3.3970888671875,-0.6230266846477985,1.634282287031412,-2.147779798685014
2024-12-04 22:06:02.059164700,3.40716455078125,0.2814344304025173,1.5259323869496584,-1.922311877915263
2024-12-04 22:06:02.069239800,3.41723974609375,1.069990115424991,1.2964230818346143,-1.6128168896764516
2024-12-04 22:06:02.079315700,3.427315673828125,1.5624094754755495,1.0636071363896131,-1.7921894142255186
2024-12-04 22:06:02.089391600,3.4373916015625,1.9166133740127085,0.7892921826034783,-1.9710466827288269
2024-12-04 22:06:02.099467800,3.4474677734375,1.9308055654942988,0.5972615442723035,-1.9510060574799768
2024-12-04 22:06:02.109543700,3.457543701171875,1.6625976964116096,0.6604588819414376,-1.7132798359006642
2024-12-04 22:06:02.119619800,3.467619873046875,0.9168190768420696,0.9177131030723452,-1.3889809540227054
2024-12-04 22:06:02.129695700,3.47769580078125,0.0301882175147533,1.2291811449497938,-1.188077565667033
2024-12-04 22:06:02.139771600,3.487771728515625,-0.5662070653170347,1.4989932343587278,-1.213700667223334
2024-12-04 22:06:02.149847800,3.497847900390625,-0.8557084823191166,1.628213780772686,-1.3408765560671687
2024-12-04 22:06:02.159923700,3.507923828125,-0.774755123206973,1.460215759935975,-1.500292918780446
2024-12-04 22:06:02.170000000,3.517999755859375,-0.55222822432518,1.3371990365982054,-1.7485335201114416
2024-12-04 22:06:02.180075800,3.52807568359375,-0.7358037535220384,1.2546505172491074,-2.294164538128674
2024-12-04 22:06:02.190151700,3.538151611328125,-1.3368144211947917,0.8090612974345683,-3.244489286470413
2024-12-04 22:06:02.200227800,3.548227783203125,-1.7290905684947966,0.4097521827578544,-3.978517847013473
2024-12-04 22:06:02.210303700,3.5583037109375,-0.8900140720248222,0.0056046881392598,-4.324787153159082
2024-12-04 22:06:02.220380000,3.5683798828125,0.818187437698245,-0.5275584779709577,-4.571780677038431
2024-12-04 22:06:02.230455800,3.578455810546875,2.5752479631364342,-0.8517115216374397,-4.67059907092601
2024-12-04 22:06:02.240531700,3.58853173828125,3.899024623581767,-0.8187289972290396,-4.940424604338407
2024-12-04 22:06:02.250607600,3.598607666015625,4.9127217738986015,-1.0558929087504745,-5.132019189339876
2024-12-04 22:06:02.260682800,3.608682861328125,5.210321157160401,-1.375420922964811,-5.071276259085535
2024-12-04 22:06:02.270759000,3.618759033203125,4.847220835462212,-1.8589830228209487,-4.769008007229864
2024-12-04 22:06:02.280834600,3.62883447265625,3.622528818625212,-2.4791437966436147,-3.834487561741471
2024-12-04 22:06:02.290910700,3.63891064453125,3.4643408286631105,-2.3821599247068166,-2.2017072037056087
2024-12-04 22:06:02.300987000,3.64898681640625,2.703619491505622,-1.6202116761028766,-0.903765241740644
2024-12-04 22:06:02.311062800,3.659062744140625,0.7619611080855131,-1.316261462509632,0.3388680899783968
2024-12-04 22:06:02.321139000,3.669138916015625,-1.509826470801234,-0.6070546240121126,1.215468845939636
2024-12-04 22:06:02.331214600,3.679214599609375,-3.214485193350911,-0.436562448272109,2.019758398927748
2024-12-04 22:06:02.341290800,3.689290771484375,-3.7618653931230304,-0.6459715069055557,3.1897470579355955
2024-12-04 22:06:02.351366700,3.69936669921875,-3.5357319941818712,-0.9503010752052068,4.50081913510859
2024-12-04 22:06:02.361442800,3.70944287109375,-2.622157598349452,-1.1541975078970192,6.136946757745743
2024-12-04 22:06:02.371519000,3.71951904296875,-1.6677753913104534,-1.9906015702873467,8.843605763077734
2024-12-04 22:06:02.381594600,3.7295947265625,-0.877701702940464,0.4242261137902736,6.529222905045748
2024-12-04 22:06:02.391670800,3.7396708984375,-1.7138368852615355,-0.7448942379504442,7.644685316357016
2024-12-04 22:06:02.401746700,3.74974658203125,-2.0113778163343667,-0.8213368416398763,7.572607922139763
2024-12-04 22:06:02.411821800,3.75982177734375,-1.6808149056255817,-0.8759066362172365,7.239601125410199
2024-12-04 22:06:02.421897700,3.769897705078125,-1.4617857857316732,-1.0553653777450325,7.227132688981294
2024-12-04 22:06:02.431973600,3.7799736328125,-2.602041862037778,-0.5580652599155903,7.926530665647983
2024-12-04 22:06:02.442049800,3.7900498046875,-5.001846164506674,0.3427724039405584,9.61944049821496
2024-12-04 22:06:02.452125700,3.800125732421875,-8.005701817518473,0.8575754452347755,10.861517949616909
2024-12-04 22:06:02.462201900,3.810201904296875,-9.957978041064738,1.1014601894438265,10.867370182776453
2024-12-04 22:06:02.472277800,3.82027783203125,-9.379742099779843,1.224669220483303,9.699725748807191
2024-12-04 22:06:02.482353700,3.830353759765625,-6.961436510458588,0.7640887677639723,8.134256301239132
2024-12-04 22:06:02.492429800,3.840429931640625,-4.649491400967538,0.146911978188157,7.626101611918211
2024-12-04 22:06:02.502505700,3.850505615234375,-3.654910746791959,-0.2896867104411125,7.509403570207953
2024-12-04 22:06:02.512582000,3.860581787109375,-3.819873345455527,0.3774649471372365,6.909691710174084
2024-12-04 22:06:02.522657800,3.87065771484375,-1.825754999218881,2.738981312265992,4.517320188054442
2024-12-04 22:06:02.532733700,3.880733642578125,-2.230909625053405,0.988067034497857,7.025557977235317
2024-12-04 22:06:02.542809600,3.8908095703125,-2.573328393250704,1.9307979667097328,6.686185737127065
2024-12-04 22:06:02.552884700,3.900884765625,-3.511147880284488,1.6871341717749833,8.214318848991393
2024-12-04 22:06:02.562961000,3.9109609375,-4.752564821951091,3.0325246981352567,7.749407673591375
2024-12-04 22:06:02.573036500,3.92103662109375,-3.376703169481456,6.353229209280014,4.440092571467161
2024-12-04 22:06:02.583112700,3.93111279296875,-1.347899586571753,6.868564750015735,3.715626789039373
2024-12-04 22:06:02.593188900,3.94118896484375,0.3527177516326308,6.298285905215144,4.971549225920438
2024-12-04 22:06:02.603264800,3.9512646484375,1.8931664474517107,6.568496930813789,5.557390381512046
2024-12-04 22:06:02.613341000,3.9613408203125,2.7852842137575147,7.198765841674804,4.889090138420462
2024-12-04 22:06:02.623416600,3.97141650390625,3.2218358483746647,7.815543987321853,4.0743420275211335
2024-12-04 22:06:02.633492700,3.98149267578125,4.088966765201092,8.748091963693499,2.742196767181158
2024-12-04 22:06:02.643568600,3.991568603515625,4.900805418394506,9.166865072774886,1.4102455681085586
2024-12-04 22:06:02.653644800,4.001644775390625,5.024519184085727,7.266102178844809,2.876390718093514
2024-12-04 22:06:02.663721000,4.011720947265625,3.435697210241854,6.656310823345184,2.3814058914691207
2024-12-04 22:06:02.673796600,4.021796630859375,0.901359349642694,7.041186338999867,1.375937640315294
2024-12-04 22:06:02.683872800,4.031872802734375,0.7511797479607164,7.284037648507952,1.832808132600784
2024-12-04 22:06:02.693948000,4.041947998046875,-1.1718130979560315,6.791602506366372,2.15357854809165
2024-12-04 22:06:02.704023800,4.05202392578125,-2.546547938352823,6.811590232384204,1.3947937319546937
2024-12-04 22:06:02.714100000,4.062099853515625,-2.028283942949772,7.42968004515171,1.2726081987440585
2024-12-04 22:06:02.724175600,4.072175537109375,-1.453794786977768,7.693193618938326,1.1920680966079231
2024-12-04 22:06:02.734251800,4.082251708984375,2.689966229206324,8.303234565284848,0.2615677004158496
2024-12-04 22:06:02.744327700,4.09232763671875,8.08203920726776,7.98597478826344,-0.5236591324448585
2024-12-04 22:06:02.754403800,4.10240380859375,9.218120628237724,6.4810594703793525,-0.3433236080825328
2024-12-04 22:06:02.764480000,4.11247998046875,10.157257919871808,3.405245373354852,0.5825134724736213
2024-12-04 22:06:02.774555600,4.1225556640625,11.102255627971887,0.6534051640376448,1.4995201808422802
2024-12-04 22:06:02.784631800,4.1326318359375,6.122760411483049,-0.8447672554574907,3.2157641272455453
2024-12-04 22:06:02.794707700,4.142707763671875,0.2793335856657475,-0.5911778404444455,2.963821164265275
2024-12-04 22:06:02.804782800,4.152782958984375,0.3901916691761463,2.547695354822278,1.5538959141522646
2024-12-04 22:06:02.814858800,4.162858642578125,-1.2825089766420423,5.88683510184586,-0.0226221661746501
2024-12-04 22:06:02.824934700,4.1729345703125,0.0581882042702287,7.121433595669269,-3.0699352681189773
2024-12-04 22:06:02.835010800,4.1830107421875,-1.1708932066321371,6.252439515319466,-4.828695583212375
2024-12-04 22:06:02.845086700,4.193086669921875,-3.584981470519304,4.563803999070823,-4.191293751731514
2024-12-04 22:06:02.855163000,4.203162841796875,5.868998416382074,3.3631668115600943,-6.74158672183156
2024-12-04 22:06:02.865238300,4.21323828125,12.024427756279708,0.458173976099491,-7.079468431121111
2024-12-04 22:06:02.875314200,4.223314208984375,-2.7548294542610643,-3.395087844216824,-1.6121534573316574
2024-12-04 22:06:02.885390000,4.23339013671875,-7.758933042305707,-3.1057781503945585,0.0969873790681362
2024-12-04 22:06:02.895466000,4.243466064453125,-0.1648053622752427,1.0502052185028792,-3.4388311243534084
2024-12-04 22:06:02.905542100,4.253542236328125,1.2807587719738482,2.995366057085991,-3.588226736050844
2024-12-04 22:06:02.915618300,4.263618408203125,-2.872408954980969,2.285802075713873,-1.0886965694606303
2024-12-04 22:06:02.925694200,4.273694091796875,-3.101701110213994,2.776556717422604,-1.2957587727069857
2024-12-04 22:06:02.935769000,4.28376904296875,0.4332132839746773,3.8027404243469234,-3.0871418389856813
2024-12-04 22:06:02.945845200,4.29384521484375,3.628829380074144,2.445802083534002,-4.172126694446802
2024-12-04 22:06:02.955921200,4.303921142578125,0.7447282337337732,-0.1023673185408115,-3.410605731344223
2024-12-04 22:06:02.965997300,4.313997314453125,-0.9069389033406972,-0.6948802069813013,-5.50961857651174
2024-12-04 22:06:02.976073000,4.324072998046875,1.0836097677156329,-0.1626841323375701,-9.31010859158337
2024-12-04 22:06:02.986149000,4.334149169921875,1.8471999383077025,-0.7964163353949785,-11.444668550950288
2024-12-04 22:06:02.996225000,4.34422509765625,0.9891776260882617,-2.234058444473148,-12.84638360660076
2024-12-04 22:06:03.006301200,4.35430126953125,1.0326926504269245,-2.8775071549028155,-13.705121081352234
2024-12-04 22:06:03.016377000,4.364377197265625,0.7400634567931293,-3.8632694195896384,-13.74886436148882
2024-12-04 22:06:03.026453200,4.374453369140625,1.2855936447843908,-4.709807337981462,-13.6843682161808
2024-12-04 22:06:03.036528000,4.384528076171875,2.388076455274224,-3.445331007766724,-14.544092363882063
2024-12-04 22:06:03.046604000,4.39460400390625,2.316804239960015,-0.9888584771364928,-14.955041647469995
2024-12-04 22:06:03.056680200,4.40468017578125,1.5343632384255528,0.3181716311693191,-14.180586383992432
2024-12-04 22:06:03.066756400,4.41475634765625,0.6028185938775539,0.3263923470258713,-12.258658536958691
2024-12-04 22:06:03.076832000,4.42483203125,-0.388894688168168,-0.0988718776404857,-10.296778618764876
2024-12-04 22:06:03.086908200,4.434908203125,2.262619645307958,0.7607622536897659,-6.188236215478182
2024-12-04 22:06:03.096984000,4.444984130859375,18.007978434515,8.898812686514853,4.202946780124306
2024-12-04 22:06:03.107060200,4.455060302734375,18.60855363337993,14.601196645373106,10.672902088165282
2024-12-04 22:06:03.117136100,4.46513623046875,0.3896057590469717,6.402035618025064,9.039014353409408
2024-12-04 22:06:03.127212000,4.4752119140625,-3.6424621841073033,4.5499014381855725,1.3618278664201495
2024-12-04 22:06:03.137288200,4.4852880859375,1.0114685144819318,3.348008697655797,-3.730418115457893
2024-12-04 22:06:03.147363000,4.495363037109375,4.613189376747608,0.5461474431067704,-7.30267395991683
2024-12-04 22:06:03.157439200,4.505439208984375,3.310965791940689,-0.1328659171789884,-7.428135153797268
2024-12-04 22:06:03.167515100,4.51551513671875,3.14219912481904,3.649389937543869,-4.664997889918089
2024-12-04 22:06:03.177591000,4.525591064453125,2.01424314263761,1.3811287792176008,-4.383618989095091
2024-12-04 22:06:03.187667200,4.535667236328125,-0.462205971561931,2.1901649422109126,-4.993689746057987
2024-12-04 22:06:03.197743000,4.5457431640625,-3.4335996534407136,3.1503225177809595,-4.644569434395432
2024-12-04 22:06:03.207819300,4.5558193359375,-3.2395722883343696,3.392099183794856,-4.924133394750952
2024-12-04 22:06:03.217895000,4.56589501953125,-2.7172750918924806,1.6728697918400168,-4.14465884180665
2024-12-04 22:06:03.227971000,4.57597119140625,-1.7070163915917276,2.2227517452999948,-2.137125425940752
2024-12-04 22:06:03.238047200,4.586047119140625,-3.24940891495496,0.7809984015107154,-0.0817167447000741
2024-12-04 22:06:03.248122000,4.5961220703125,-3.49971170951277,0.2229239353753626,-1.2150959209740162
2024-12-04 22:06:03.258198300,4.6061982421875,-6.067337799468636,-2.274585392911732,-4.300921416664123
2024-12-04 22:06:03.268274200,4.616274169921875,-4.4913621554553504,-1.8551114420846104,-2.7774890298366546
2024-12-04 22:06:03.278350000,4.62635009765625,-2.903027088345587,-3.6909748706027865,0.0632516982048749
2024-12-04 22:06:03.288426200,4.63642626953125,-1.687320634257793,-2.640553963522613,0.2401286065459251
2024-12-04 22:06:03.298502100,4.646502197265625,-0.3139119278982281,-1.87138423923254,2.5415099441856146
2024-12-04 22:06:03.308578300,4.656578369140625,-1.1263064614087344,-0.5366379295486956,3.306690014317632
2024-12-04 22:06:03.318654000,4.666654052734375,-2.6396169749334453,2.3498345490328965,3.8791754292517897
2024-12-04 22:06:03.328730000,4.676730224609375,-4.722071484009922,5.462865008643269,6.031434126916527
2024-12-04 22:06:03.338806300,4.68680615234375,-5.886863743418455,5.834928388997912,8.87526580671072
2024-12-04 22:06:03.348881200,4.696881103515625,-4.939383570852876,5.821026120373606,10.760912380051613
2024-12-04 22:06:03.358957000,4.70695703125,-4.281484310266375,4.477520384846628,11.841204693782329
2024-12-04 22:06:03.369033200,4.717033203125,-3.3594045364171263,3.8231127657681694,10.776355448377132
2024-12-04 22:06:03.379109000,4.727109130859375,-2.327643906143308,3.890134630161524,7.018484677848219
2024-12-04 22:06:03.389185300,4.737185302734375,-1.7848691543400286,3.3087299957126377,3.0620781248778104
2024-12-04 22:06:03.399261200,4.74726123046875,-2.7193881385236978,3.026887861292064,0.4022083432495594
2024-12-04 22:06:03.409337000,4.757337158203125,-3.5370986063599585,1.9175944940045475,0.8429857788681984
2024-12-04 22:06:03.419413000,4.7674130859375,-1.71990831412971,0.2915785155370831,2.70028596316874
2024-12-04 22:06:03.429489200,4.7774892578125,-1.3311597564339637,0.7560726345688105,1.001250925719738
2024-12-04 22:06:03.439565000,4.78756494140625,-1.3184598493367432,1.9833717651642857,0.2643506091326475
2024-12-04 22:06:03.449640000,4.797639892578125,-2.476563717022538,3.427653312256932,-0.1559744055658578
2024-12-04 22:06:03.459716000,4.807716064453125,-4.381430539140105,4.231417087805271,0.3828156605154276
2024-12-04 22:06:03.469792000,4.8177919921875,-5.992977847272157,4.350294811642169,1.474699627840519
2024-12-04 22:06:03.479868200,4.8278681640625,-2.6066864729732275,5.005864167976379,0.6613929479211569
2024-12-04 22:06:03.489944300,4.8379443359375,-1.8459242192834613,6.574140489658713,0.5079974529325961
2024-12-04 22:06:03.500020000,4.84802001953125,-1.1476266050741075,5.330650248849391,-0.1536556072294712
2024-12-04 22:06:03.510096100,4.85809619140625,1.8837910086020824,3.321720117928088,-1.284614278358221
2024-12-04 22:06:03.520172000,4.868172119140625,8.473914372551441,3.124276806898415,-5.033322668266296
2024-12-04 22:06:03.530248200,4.878248291015625,10.58804704543948,2.4616315208286044,-7.965531135171651
2024-12-04 22:06:03.540324000,4.888323974609375,9.275520677804948,0.0739525404393672,-7.232620180481672
2024-12-04 22:06:03.550400300,4.898400146484375,9.336300432938335,-1.6147092792943118,-6.353429700288176
2024-12-04 22:06:03.560475100,4.90847509765625,4.353214206220209,-2.2591367716282607,-4.198584493261575
2024-12-04 22:06:03.570551000,4.918551025390625,-5.755900444990396,-3.2118285413622853,-1.64450674392581
2024-12-04 22:06:03.580627200,4.928627197265625,-6.982374669069051,-1.720856116373837,-1.7983242637187242
2024-12-04 22:06:03.590703400,4.938703369140625,-1.6856886491417884,1.2071651279747486,-2.3862843111604453
2024-12-04 22:06:03.600779000,4.948779052734375,4.932945646759867,3.502170208580792,-2.586622759109736
2024-12-04 22:06:03.610855200,4.958855224609375,5.921127832069993,4.792139584231377,-3.042804100087285
2024-12-04 22:06:03.620931000,4.96893115234375,2.3820827678173777,4.113051989665627,-2.1759651519447565
2024-12-04 22:06:03.631007200,4.97900732421875,-1.5525193651020526,2.53915870488435,-0.0071773442834615
2024-12-04 22:06:03.641083100,4.989083251953125,-4.055487104925513,1.2778677267074583,2.0539128897249697
2024-12-04 22:06:03.651159000,4.999158935546875,-3.503271447820961,-0.2454237903445958,3.1927994312435386
2024-12-04 22:06:03.661234200,5.009234130859375,-2.1685686119526624,-1.5475088434636592,3.31301512568593
2024-12-04 22:06:03.671310000,5.01931005859375,-1.5207847949281337,-2.384277062991261,2.634469382911921
2024-12-04 22:06:03.681386200,5.02938623046875,-2.337242340093851,-3.054147331878543,2.3639210881829262
2024-12-04 22:06:03.691462100,5.039462158203125,-3.164330292606353,-3.455138116031885,2.844050290980935
2024-12-04 22:06:03.701538000,5.0495380859375,-3.617484979239106,-3.911816885137558,3.2772289420336485
2024-12-04 22:06:03.711614200,5.0596142578125,-3.751141170012951,-3.878623056066036,3.246581874835491
2024-12-04 22:06:03.721690000,5.069690185546875,-4.250922291003167,-3.2358143971055746,3.152394940140843
2024-12-04 22:06:03.731766300,5.079766357421875,-5.753541314643621,-3.3019378513544795,6.93062285452187
2024-12-04 22:06:03.741842000,5.089842041015625,-3.0511487345844506,-4.612046051931381,9.296279972717166
2024-12-04 22:06:03.751918000,5.09991796875,-0.6776973092511296,-2.938233134022355,8.257541904646157
2024-12-04 22:06:03.761993200,5.1099931640625,0.9613234044790268,-0.5161036024987697,6.838522662973404
2024-12-04 22:06:03.772069000,5.120069091796875,2.645242413599789,0.8273539099723101,5.096238266384601
2024-12-04 22:06:03.782145300,5.130145263671875,2.5619679180637,1.3109253621786832,2.9990041213274
2024-12-04 22:06:03.792221200,5.14022119140625,0.5804337435901165,1.0273971743673085,1.5850602832227945
2024-12-04 22:06:03.802297000,5.150297119140625,-2.1128733204767105,0.8231126191407442,0.7176321370154619
2024-12-04 22:06:03.812373200,5.160373291015625,-4.441918325589597,1.194345978412032,-0.0827303056567907
2024-12-04 22:06:03.822449200,5.17044921875,-7.646764460718631,1.7126292630374431,-0.5413140316009522
2024-12-04 22:06:03.832525300,5.180525390625,-9.04675283870697,0.4688368244111537,-0.4904992056429386
2024-12-04 22:06:03.842601000,5.19060107421875,-8.591602009820937,0.8098416341572999,-1.5415309380978346
2024-12-04 22:06:03.852677000,5.200677001953125,-7.19375648908019,1.5296996305286883,-3.149538381665945
2024-12-04 22:06:03.862753300,5.210753173828125,-6.318716698825359,1.7679723800748586,-4.362096893116831
2024-12-04 22:06:03.872829200,5.2208291015625,-5.879656588518619,2.6310505143791434,-5.962738191831112
2024-12-04 22:06:03.882904300,5.230904296875,-4.6552913194179535,2.1932295904785395,-6.839367881625891
2024-12-04 22:06:03.892980200,5.240980224609375,-2.389244914531708,1.1073393106102942,-6.401724652379751
2024-12-04 22:06:03.903056400,5.251056396484375,-0.3584149403609335,0.6573258446127176,-5.3950113696008914
2024-12-04 22:06:03.913132300,5.26113232421875,1.995252757094056,0.8598445592105388,-4.414279500296711
2024-12-04 22:06:03.923208200,5.271208251953125,4.737249471658468,1.8289631476104256,-3.3961855763256548
2024-12-04 22:06:03.933284400,5.281284423828125,6.929273193478584,3.486502391588688,-1.9922844088077545
2024-12-04 22:06:03.943360300,5.2913603515625,8.208690487715602,4.850746086978912,-0.7432508546575903
2024-12-04 22:06:03.953436400,5.3014365234375,8.521705466774106,5.719905587023496,-0.1122922079667449
2024-12-04 22:06:03.963512000,5.311511962890625,7.571619495624303,5.662272897744178,0.6879451470211148
2024-12-04 22:06:03.973588200,5.321588134765625,5.613415635594725,4.423979641056061,1.2521943562686442
2024-12-04 22:06:03.983664400,5.331664306640625,3.4878397776722907,2.98341375348568,1.147905422015488
2024-12-04 22:06:03.993740300,5.341740234375,1.8592881432473656,1.633900009715557,0.9108052233800292
2024-12-04 22:06:04.003815200,5.351815185546875,0.161655446876958,-0.036039281630516,0.725215139490366
2024-12-04 22:06:04.013891300,5.361891357421875,-1.5113479812800883,-1.4593237795323133,0.5653703222319484
2024-12-04 22:06:04.023967200,5.37196728515625,-1.9893565386623144,-2.0142676925569774,0.3955184902220964
2024-12-04 22:06:04.034043400,5.38204345703125,-0.3808475753128528,-2.694516147595644,0.2694122764363885
2024-12-04 22:06:04.044119300,5.392119384765625,2.269995434772968,-3.816185596853495,-0.1561187824726104
2024-12-04 22:06:04.054195200,5.4021953125,4.935305361628532,-4.164066722109913,-1.4744827702194452
2024-12-04 22:06:04.064271000,5.41227099609375,5.064198283523321,-2.598846865388751,-3.854895266737044
2024-12-04 22:06:04.074347300,5.42234716796875,2.975357872802019,0.0393219565629959,-5.896828088071942
2024-12-04 22:06:04.084423400,5.43242333984375,2.4485785625100136,1.8220482536554337,-7.096020921993255
2024-12-04 22:06:04.094499300,5.442499267578125,3.315221111297608,2.403740472874045,-7.929477825015783
2024-12-04 22:06:04.104575200,5.4525751953125,4.587903544321656,2.1725012752264736,-8.544266842672227
2024-12-04 22:06:04.114651100,5.462651123046875,4.681286761417985,1.3190145606100558,-8.442813131844996
2024-12-04 22:06:04.124727300,5.472727294921875,3.2104654363155363,0.7310568512558937,-7.736219106194376
2024-12-04 22:06:04.134803200,5.48280322265625,1.7155711617082356,0.381703315359354,-6.691338297584653
2024-12-04 22:06:04.144878000,5.492878173828125,0.4431634539723396,-0.2154687970638275,-5.993683949714899
2024-12-04 22:06:04.154954200,5.502954345703125,-0.1426969908416271,-0.3723123866796493,-5.46422460655868
2024-12-04 22:06:04.165030100,5.513030029296875,-0.2548503748595714,-0.509027380502224,-5.223575191009044
2024-12-04 22:06:04.175106300,5.523106201171875,-0.3775543789863586,-0.818226600664854,-5.30349803802967
2024-12-04 22:06:04.185182200,5.53318212890625,0.5795277346611023,1.0662959370821714,-4.560912953804433
2024-12-04 22:06:04.195258400,5.54325830078125,1.2032406480073927,1.837400721088052,-2.915547547222673
2024-12-04 22:06:04.205334300,5.553334228515625,0.2724153307098895,0.045851066070795,-1.568598685504496
2024-12-04 22:06:04.215410200,5.56341015625,-1.033245388938859,-1.6743325578689574,-0.5933578148320316
2024-12-04 22:06:04.225486300,5.573486328125,-2.6168296813249587,-2.822483186817169,0.1492363294824957
2024-12-04 22:06:04.235562200,5.583562255859375,-3.507949668765068,-2.7220401143372057,0.4303136170104146
2024-12-04 22:06:04.245638400,5.593638427734375,-3.879460091412067,-1.8585282647907733,0.4560118296295404
2024-12-04 22:06:04.255714300,5.60371435546875,-3.5496646579444406,1.101411089605093,0.3412421256333589
2024-12-04 22:06:04.265790200,5.613790283203125,-3.477326566964388,4.128119210416078,0.2532654437556862
2024-12-04 22:06:04.275865300,5.623865234375,-3.5912966450154777,5.95556143206954,-0.3969166665822267
2024-12-04 22:06:04.285941200,5.633941162109375,-3.634605040866136,7.014538570570945,-1.1901342059358957
2024-12-04 22:06:04.296017200,5.64401708984375,-3.8633550520464777,6.934896294057369,-1.2473144752725958
2024-12-04 22:06:04.306093300,5.65409326171875,-4.543012555454671,6.353768138462304,-1.1058204304799435
2024-12-04 22:06:04.316169200,5.664169189453125,-4.6007530890226365,6.462139081332087,-1.2280948110178111
2024-12-04 22:06:04.326245400,5.674245361328125,-1.7469933049321174,6.968709131810068,-1.9304013686075805
2024-12-04 22:06:04.336321300,5.6843212890625,0.8258665940240025,7.497514394971728,-2.633186941885948
2024-12-04 22:06:04.346397200,5.694397216796875,1.4548118550658224,8.04999863988459,-2.727563846194744
2024-12-04 22:06:04.356473000,5.70447314453125,1.857264528465271,6.452765103787184,-2.1375845678851007
2024-12-04 22:06:04.366549200,5.71454931640625,0.2315536704242229,4.535174409174918,-1.7396107934653755
2024-12-04 22:06:04.376625400,5.72462548828125,-0.4783960953950881,3.272691883125901,-1.9132842295899983
2024-12-04 22:06:04.386701300,5.734701416015625,-1.5013789604514836,1.6302940941780804,-1.0527664472930132
2024-12-04 22:06:04.396777200,5.744777099609375,-0.8307213405787944,0.2829343135714531,-1.1765461178272962
2024-12-04 22:06:04.406853000,5.75485302734375,0.9779404850199818,-0.936414004150033,-1.208297931396961
2024-12-04 22:06:04.416929300,5.76492919921875,-0.2043190420180559,-1.488739259108901,2.158099824908376
2024-12-04 22:06:04.427005200,5.775005126953125,-4.556708195590972,-4.602175815302133,4.124759086333215
2024-12-04 22:06:04.437080300,5.785080322265625,-9.180496123242378,-5.988606792581081,5.980255728343129
2024-12-04 22:06:04.447156200,5.79515625,-12.41086920607686,-7.155993452396989,7.908430360811948
2024-12-04 22:06:04.457232100,5.805232177734375,-12.240554724991322,-7.530684258645772,8.427586336618662
2024-12-04 22:06:04.467308300,5.815308349609375,-10.033542692875862,-7.006069432911277,7.855711162537336
2024-12-04 22:06:04.477384400,5.825384521484375,-8.562504510152339,-6.513313972774148,8.877267209661007
2024-12-04 22:06:04.487460400,5.83546044921875,-6.2229451252877706,-5.25817888687849,9.788384859991073
2024-12-04 22:06:04.497536300,5.845536376953125,-3.930876390394568,-4.295697544535995,9.871729498153924
2024-12-04 22:06:04.507612200,5.855612060546875,-2.260021153247356,-3.4574516536712645,8.102056159380078
2024-12-04 22:06:04.517688300,5.865688232421875,-0.566969281861186,-2.4798083980321883,6.349298884093761
2024-12-04 22:06:04.527764200,5.87576416015625,2.9476264007896185,-2.1646832949519155,5.280859505242109
2024-12-04 22:06:04.537840400,5.88584033203125,7.064032377058267,-1.3711445608198642,3.1108360183060166
2024-12-04 22:06:04.547916300,5.895916259765625,10.684095682352782,-0.1292594171196222,0.6659126173026859
2024-12-04 22:06:04.557992200,5.9059921875,10.95067858058214,0.8321154252856969,-0.992488942593336
2024-12-04 22:06:04.568068400,5.916068359375,7.189511691117287,1.4303338318914174,-1.589125048443675
2024-12-04 22:06:04.578144300,5.926144287109375,2.5228654494702814,1.599171810683608,-1.3625535503461956
2024-12-04 22:06:04.588220400,5.936220458984375,-1.3707616989821194,1.473811739090085,-1.374130883154273
2024-12-04 22:06:04.598296000,5.946296142578125,-3.347631681036949,0.9595932196855544,-1.509877031944692
2024-12-04 22:06:04.608371200,5.95637109375,-2.8002643407464025,-0.0474018026441335,-1.4847542811259626
2024-12-04 22:06:04.618447400,5.966447265625,-0.9459764900043606,-1.2524778493851425,-1.2328399597182869
2024-12-04 22:06:04.628523300,5.976523193359375,0.2215378878444433,-2.673640532827377,-1.1038196120515464
2024-12-04 22:06:04.638599200,5.98659912109375,0.1997217773556709,-3.8205022910088298,-0.9010434155613184
2024-12-04 22:06:04.648675300,5.99667529296875,0.0965957494020462,-4.202831044790148,-0.8424404199451208
2024-12-04 22:06:04.658751200,6.006751220703125,0.8516296885728836,-4.173911824297905,-1.3462576645836233
2024-12-04 22:06:04.668827400,6.016827392578125,2.25277834251225,-3.908650530061125,-2.239664886178076
2024-12-04 22:06:04.678903300,6.0269033203125,3.365036112563312,-3.416012558823824,-3.0977555874586105
2024-12-04 22:06:04.688979200,6.036979248046875,3.764655900624394,-2.9548399854302403,-3.8627395504966375
2024-12-04 22:06:04.699055000,6.04705517578125,3.861574890631437,-2.9452532419174906,-4.1664051019296044
2024-12-04 22:06:04.709131300,6.05713134765625,4.074412754669785,-3.010590514224768,-3.880987739370763
2024-12-04 22:06:04.719207200,6.067207275390625,3.5463586021363733,-2.300038106337189,-2.6532556241855025
2024-12-04 22:06:04.729283300,6.077283447265625,1.5682941495999694,-0.2843289828002452,-0.0833110281541943
2024-12-04 22:06:04.739359500,6.087359375,-0.1149205106437206,2.89439633038342,2.931461447930336
2024-12-04 22:06:04.749435100,6.09743505859375,1.3416563082680106,6.653592796558141,5.1957940346360205
2024-12-04 22:06:04.759511300,6.10751123046875,0.1092477257043123,9.984771355444192,5.739340939855575
2024-12-04 22:06:04.769586400,6.11758642578125,-4.067588461607694,12.14098259012699,6.173875681692362
2024-12-04 22:06:04.779662300,6.127662353515625,-5.792478655803203,12.178988203394413,6.232126795130967
2024-12-04 22:06:04.789738200,6.13773828125,-3.565513676722348,8.242802600675821,5.018279997435212
2024-12-04 22:06:04.799814100,6.147814208984375,-1.0633604681521651,2.7626018418282268,4.843251347309351
2024-12-04 22:06:04.809890300,6.157890380859375,-2.5595406909167764,-0.8659668414831161,5.3972869133174415
2024-12-04 22:06:04.819966200,6.16796630859375,-5.464179598373175,-2.651073896232248,5.639114140474796
2024-12-04 22:06:04.830042400,6.17804248046875,-6.161846805724501,-3.382503672453761,5.722321415993571
2024-12-04 22:06:04.840118300,6.1881181640625,-5.76214196972847,-3.336300139683485,5.536272774681448
2024-12-04 22:06:04.850194200,6.198194091796875,-5.490000268328189,-2.5624428420990704,4.8481458413526415
2024-12-04 22:06:04.860270300,6.208270263671875,-5.308695606672764,-1.5098761551618576,4.095673569363355
2024-12-04 22:06:04.870347000,6.218346923828125,-5.351058246105909,-1.5488468140691518,4.051946363578737
2024-12-04 22:06:04.880423000,6.2284228515625,-5.4943806753695,-1.572114292410016,3.666737962707877
2024-12-04 22:06:04.890498800,6.238498779296875,-5.349866990494728,-1.170565874373913,3.0027225573286414
2024-12-04 22:06:04.900575000,6.248574951171875,-5.185197821819782,-0.4838765726327896,2.522390817695856
2024-12-04 22:06:04.910651000,6.25865087890625,-5.139817880392075,0.4469780438244342,1.913005704909563
2024-12-04 22:06:04.920727000,6.26872705078125,-5.347784339001774,1.276195409581065,1.261046063505113
2024-12-04 22:06:04.930803000,6.278802978515625,-5.940022502154111,1.6561954281538724,0.6204694013804197
2024-12-04 22:06:04.940877800,6.2888779296875,-6.260633927690982,1.4763544093102217,0.1187993979036808
2024-12-04 22:06:04.950954000,6.2989541015625,-6.254101311051845,0.98558106290102,-0.1497813961446285
2024-12-04 22:06:04.961030000,6.30902978515625,-6.371023224645852,0.2735141587972641,-0.2564697927549481
2024-12-04 22:06:04.971106000,6.31910595703125,-6.372540643471479,-0.3074023998737335,-0.5487900665700435
2024-12-04 22:06:04.981182000,6.329181884765625,-6.117964993900061,-0.8659773628771305,-0.7544897492915391
2024-12-04 22:06:04.991257900,6.3392578125,-5.6579252239286895,-1.764610210165381,-0.5714765301525593
2024-12-04 22:06:05.001334000,6.349333984375,-2.0766811863720416,-2.158990636268258,-0.8442521455422043
2024-12-04 22:06:05.011410000,6.359409912109375,-1.7815597375310956,-3.434007065197825,-0.3534004731997847
2024-12-04 22:06:05.021486000,6.369486083984375,-5.136639250355959,-5.723561771443486,0.1468488498240709
2024-12-04 22:06:05.031561700,6.379561767578125,-4.006123646819591,-4.718163078394532,-0.4994966049604117
2024-12-04 22:06:05.041638000,6.389637939453125,-1.4806453845024108,-3.0422394519418474,-1.3416843653187156
2024-12-04 22:06:05.051714000,6.399714111328125,0.1205026581576094,-1.1553145292282103,-3.343428968650102
2024-12-04 22:06:05.061790000,6.4097900390625,0.9853215351819992,0.6049170274615288,-4.655109240849316
2024-12-04 22:06:05.071866000,6.4198662109375,1.225624329251051,2.17821497669816,-6.100795247912407
2024-12-04 22:06:05.081941800,6.429941650390625,1.234609599739313,3.1406150704979896,-6.903105317521095
2024-12-04 22:06:05.092018000,6.440017822265625,2.3180958872057498,3.0878105320274827,-7.1784227263480425
2024-12-04 22:06:05.102093800,6.45009375,1.200409954626113,3.8000919556647537,-7.502575185492634
2024-12-04 22:06:05.112169000,6.4601689453125,-0.0442968223661184,6.461464543071389,-8.899757273888588
2024-12-04 22:06:05.122244900,6.470244873046875,-0.5809785179913044,8.618152163094281,-9.77238883395791
2024-12-04 22:06:05.132320800,6.48032080078125,-2.3716892379663883,9.592292963570356,-9.503802779212592
2024-12-04 22:06:05.142397000,6.49039697265625,-1.892325174321979,8.914273875018953,-7.988561297625303
2024-12-04 22:06:05.152473000,6.50047314453125,0.3827721136346459,6.624038200771809,-5.302451743847131
2024-12-04 22:06:05.162549000,6.510549072265625,7.188349661600589,2.1541104630112646,-1.326279437046498
2024-12-04 22:06:05.172625000,6.520625,12.935665818119048,-1.923093383681774,1.7831065285816787
2024-12-04 22:06:05.182700800,6.53070068359375,7.50068191909194,-2.506812724813819,1.3019139343358574
2024-12-04 22:06:05.192777000,6.54077685546875,2.065265619996935,-1.2048334701567889,-0.0339282808259129
2024-12-04 22:06:05.202852900,6.550852783203125,-0.7332128602460026,-0.1191968727886676,-0.2467030165001749
2024-12-04 22:06:05.212929000,6.560928955078125,-3.132590753996372,1.342886434584856,-0.1259673898369074
2024-12-04 22:06:05.223005000,6.5710048828125,-4.234105011714995,3.418586208704114,-0.2181836089804768
2024-12-04 22:06:05.233080800,6.581080810546875,-2.757646849769354,5.071587809252739,-0.2855322211101651
2024-12-04 22:06:05.243157000,6.591156982421875,0.272128549657762,6.798983264267444,-1.762121023698151
2024-12-04 22:06:05.253233000,6.60123291015625,2.248179470414668,7.449666602125763,-4.828674832685292
2024-12-04 22:06:05.263309000,6.61130908203125,1.0071185025788842,6.991524774730205,-7.776475713258981
2024-12-04 22:06:05.273384000,6.621384033203125,-2.666166251423955,5.906058273231983,-9.87043185955882
2024-12-04 22:06:05.283459800,6.6314599609375,-4.877586747631431,5.373144990229607,-11.466740097504854
2024-12-04 22:06:05.293536000,6.641535888671875,-3.744947576069832,5.914117661046982,-12.91078389031887
2024-12-04 22:06:05.303612000,6.65161181640625,-0.633618075158447,7.081953818196058,-13.522081558728216
2024-12-04 22:06:05.313688000,6.66168798828125,2.2085100155882538,8.00481100615859,-13.11643739581108
2024-12-04 22:06:05.323764000,6.671763916015625,4.184143879976868,7.920937375685572,-11.543981158095598
2024-12-04 22:06:05.333840000,6.68183984375,5.115603476589918,6.585155804669856,-9.24642142457068
2024-12-04 22:06:05.343916000,6.691916015625,4.405805101940036,4.571566157504916,-7.158700373268127
2024-12-04 22:06:05.353992000,6.701991943359375,3.087224256572127,3.24376798645854,-6.00436784081459
2024-12-04 22:06:05.364068000,6.712068115234375,2.7686843766123053,2.720411051830649,-5.463973262146115
2024-12-04 22:06:05.374143700,6.722143798828125,1.814208646070957,2.5450322730928656,-4.72477782035917
2024-12-04 22:06:05.384220000,6.732219970703125,-0.0872942525714635,2.655178993463516,-3.444568791222572
2024-12-04 22:06:05.394295800,6.7422958984375,-1.7780021911799906,2.7018741091430187,-2.3099989438593385
2024-12-04 22:06:05.404372000,6.7523720703125,-2.5965257289648056,3.03350727943182,-1.4620336230129003
2024-12-04 22:06:05.414448000,6.7624482421875,-2.760046312126517,3.303733502599597,-1.118405625156313
2024-12-04 22:06:05.424522800,6.772522705078125,-2.2469664413630963,2.942273933845758,-0.8794446741502732
2024-12-04 22:06:05.434599000,6.782598876953125,-1.5246353328764437,3.0024259124696253,-0.2106236585875973
2024-12-04 22:06:05.444675000,6.792675048828125,-1.1766086616694926,3.0272844593942163,0.2249687208096496
2024-12-04 22:06:05.454751000,6.8027509765625,-1.0042132826566696,3.131248691737652,0.8018212631784379
2024-12-04 22:06:05.464827000,6.812826904296875,-0.7034510514497756,3.935682913893461,1.726632507818192
2024-12-04 22:06:05.474902800,6.82290283203125,-0.816553699016571,5.257247158986329,2.5996023599311706
2024-12-04 22:06:05.484979000,6.83297900390625,-1.277070438849926,6.024519817483425,3.8137966558903456
2024-12-04 22:06:05.495054800,6.843054931640625,-2.2782138125419613,7.005887646603584,4.995459093818068
2024-12-04 22:06:05.505131000,6.853131103515625,-2.8106898731708525,8.51694395146072,4.936805829319358
2024-12-04 22:06:05.515207200,6.863207275390625,-2.9883260754466057,9.603260932308435,5.166792396557331
2024-12-04 22:06:05.525282800,6.87328271484375,-2.9389877517819403,9.444313648411631,5.12574493137598
2024-12-04 22:06:05.535359000,6.88335888671875,-3.349294061291217,5.958087151154875,4.406727477481961
2024-12-04 22:06:05.545435000,6.893434814453125,-3.9806794089615343,1.8917413830846548,3.99282928096056
2024-12-04 22:06:05.555511000,6.903510986328125,-4.7402071524202825,-0.9300690190374852,3.90597517337203
2024-12-04 22:06:05.565587000,6.9135869140625,-4.88379846175313,-2.807874815750122,3.852968098066747
2024-12-04 22:06:05.575661800,6.923661865234375,-5.343516744685172,-3.987334775197506,4.016880310894549
2024-12-04 22:06:05.585738000,6.933738037109375,-6.057693772810697,-4.855590019878745,4.449702695855498
2024-12-04 22:06:05.595814000,6.94381396484375,-6.007680910885334,-5.276124877935648,4.886133918963372
2024-12-04 22:06:05.605890000,6.95389013671875,-4.528805458664894,-5.22555964282453,5.177682039362192
2024-12-04 22:06:05.615966000,6.963966064453125,-3.7171453769087774,-4.748523729866743,5.461134239327907
2024-12-04 22:06:05.626041900,6.974041748046875,-3.784465931987762,-4.105388907691836,5.864217611846327
2024-12-04 22:06:05.636118000,6.984117919921875,-3.8813118567585945,-3.6141701556026935,6.6069438581079245
2024-12-04 22:06:05.646194000,6.99419384765625,-4.073897790884971,-3.4905092891424894,7.492174202987551
2024-12-04 22:06:05.656270000,7.00427001953125,-4.375908560848236,-3.6775615545392033,8.275280974954367
2024-12-04 22:06:05.666345700,7.014345703125,-4.310107762682438,-4.18361956384182,8.984231792864202
2024-12-04 22:06:05.676422000,7.024421875,-3.698798403835296,-4.9027942541241645,9.509780684578418
2024-12-04 22:06:05.686498000,7.034498046875,-2.331943064641953,-5.76370848839283,9.687238607677816
2024-12-04 22:06:05.696574000,7.044573974609375,0.5715468189097941,-6.296424202996492,8.784220677173137
2024-12-04 22:06:05.706650000,7.054650146484375,4.554610931050777,-6.067701372084021,6.588503946053981
2024-12-04 22:06:05.716725000,7.06472509765625,6.373916607999801,-5.491149438363314,3.921540991294384
2024-12-04 22:06:05.726801000,7.07480078125,5.764710358911753,-4.6170109808623785,1.519791399976611
2024-12-04 22:06:05.736877000,7.084876953125,4.8813338252052665,-3.4732138709485527,-0.433656789958477
2024-12-04 22:06:05.746953000,7.094952880859375,3.755440913033485,-2.405785714966058,-1.9051067683532832
2024-12-04 22:06:05.757028900,7.10502880859375,2.0946996581435204,-1.3637860147505998,-3.1443951735585927
2024-12-04 22:06:05.767104800,7.115104736328125,0.5852839601002633,-0.2058417215406894,-4.060263233286142
2024-12-04 22:06:05.777181000,7.125180908203125,0.2915124645635485,1.4416957683831453,-5.292408488738537
2024-12-04 22:06:05.787256800,7.1352568359375,1.529179259916395,3.017760844245553,-6.234498784959316
2024-12-04 22:06:05.797333000,7.1453330078125,0.8376267360530794,3.880295373192429,-5.933472349858284
2024-12-04 22:06:05.807409200,7.1554091796875,-1.106329549045861,4.107279836004972,-4.968377610146999
2024-12-04 22:06:05.817484800,7.16548486328125,-1.5177292067497967,3.5824160039454696,-3.8595541984587904
2024-12-04 22:06:05.827561000,7.17556103515625,-0.3206947199061513,2.545936528456211,-2.927166673345864
2024-12-04 22:06:05.837636000,7.185635986328125,2.1018062752783297,1.285118136227131,-2.0209774193286894
2024-12-04 22:06:05.847712000,7.1957119140625,4.302997346155345,-0.0034393267989158,-2.175510101653636
2024-12-04 22:06:05.857788000,7.205787841796875,3.5517347422167656,-0.3912339447706937,-1.321970780067146
2024-12-04 22:06:05.867864000,7.215864013671875,3.0909386009201407,1.64857209366858,3.010317834763229
2024-12-04 22:06:05.877940000,7.22593994140625,5.184543157303333,5.698885595348477,6.666792469871044
2024-12-04 22:06:05.888016000,7.236015869140625,3.40189197127372,8.122424993669986,8.146894249016047
2024-12-04 22:06:05.898092000,7.246092041015625,0.0593690115526318,7.454844881546497,8.859349275654553
2024-12-04 22:06:05.908168200,7.256168212890625,-3.024930882005393,4.176791179126501,9.309573169532417
2024-12-04 22:06:05.918244000,7.266244140625,-3.762456344753504,0.0362017787158489,9.142344379502534
2024-12-04 22:06:05.928320000,7.276320068359375,-2.5938135473966595,-2.8921050045758485,8.963680003222823
2024-12-04 22:06:05.938396000,7.28639599609375,-2.099483385288716,-4.009059115749597,8.892173686891793
2024-12-04 22:06:05.948472000,7.29647216796875,-2.9021850845634938,-3.370585271123052,8.705963717538118
2024-12-04 22:06:05.958548000,7.3065478515625,-3.768868549883365,-1.6584499290823935,8.166568671301007
2024-12-04 22:06:05.968622800,7.316622802734375,-3.8275954641401766,-0.1610854649692773,7.393148011568188
2024-12-04 22:06:05.978699000,7.326698974609375,-3.424942884254455,1.2198287947148083,6.682741734153032
2024-12-04 22:06:05.988775000,7.33677490234375,-3.2025089243531224,2.4112895730793475,5.828969188332557
2024-12-04 22:06:05.998851000,7.34685107421875,-3.031220629799366,3.1207647071242333,4.811851415917277
2024-12-04 22:06:06.008927200,7.35692724609375,-3.1436884865939616,3.707600718972087,3.473744909085333
2024-12-04 22:06:06.019003000,7.3670029296875,-3.218087601757049,4.304998456844687,2.330050675024092
2024-12-04 22:06:06.029079000,7.3770791015625,-4.0437785469532015,4.755387770417332,1.2350726872064173
2024-12-04 22:06:06.039155000,7.387155029296875,-5.252063618868589,5.032403215333819,0.4010197179868817
2024-12-04 22:06:06.049231000,7.397231201171875,-6.329492944383621,4.881225980916619,-0.0867445097342133
2024-12-04 22:06:06.059307000,7.40730712890625,-7.088572944074869,4.300504652556777,-0.5566498401597142
2024-12-04 22:06:06.069383000,7.4173828125,-7.238561260968447,3.178369923874736,-0.9120612147904932
2024-12-04 22:06:06.079458000,7.4274580078125,-6.884101341843604,1.7459715606689452,-0.9922658013619482
2024-12-04 22:06:06.089534000,7.437533935546875,-5.80113776307702,0.4284902009755372,-1.0140001518514006
2024-12-04 22:06:06.099610000,7.447610107421875,-4.486639218586683,-0.7823451399445533,-0.9426388700142502
2024-12-04 22:06:06.109686000,7.45768603515625,-3.4268203685641287,-1.7321271597117185,-0.8554460319906473
2024-12-04 22:06:06.119762000,7.467761962890625,-2.5443314313471315,-2.292057044455409,-0.9719146488592028
2024-12-04 22:06:06.129838000,7.477838134765625,-1.8532944557905195,-2.724663448578119,-1.1618413006484507
2024-12-04 22:06:06.139914000,7.4879140625,-1.6215163289606571,-2.8607670325040817,-1.5861179755821824
2024-12-04 22:06:06.149990100,7.497990234375,-1.8731109168946745,-2.666165666902065,-2.116396818427741
2024-12-04 22:06:06.160066000,7.508066162109375,-1.953819361335039,-2.2851386433690783,-2.6877035449713467
2024-12-04 22:06:06.170142000,7.518141845703125,-1.85437582128644,-1.751415797549486,-2.973208585813641
2024-12-04 22:06:06.180217900,7.5282177734375,-0.9800713595688344,-1.0938871238410472,-2.9354104778170584
2024-12-04 22:06:06.190293000,7.53829296875,0.0696464042106643,-0.2395043371677398,-2.9204715596213937
2024-12-04 22:06:06.200369200,7.548369140625,1.4136276117622852,0.8534428754746913,-3.135686966446042
2024-12-04 22:06:06.210444800,7.55844482421875,2.4177707517921925,1.223403146070242,-3.168243082135916
2024-12-04 22:06:06.220521000,7.56852099609375,2.339984332278371,0.6505331157326698,-3.0341432392477987
2024-12-04 22:06:06.230597000,7.57859716796875,2.7705098384737967,-0.2546750182926655,-3.0602140845716
2024-12-04 22:06:06.240673000,7.588673095703125,3.427014429831505,-0.8336153084546327,-2.902613831369578
2024-12-04 22:06:06.250749200,7.598749267578125,3.618258301699161,-1.0688315930396315,-3.138838708475232
2024-12-04 22:06:06.260824800,7.608824951171875,3.158172354498505,-0.6187970842540264,-3.333383375453949
2024-12-04 22:06:06.270901000,7.61890087890625,2.3392127633839843,0.163842654722929,-3.6007051093518734
2024-12-04 22:06:06.280977000,7.628976806640625,1.4436353581435977,0.8352917172342539,-3.847150059437752
2024-12-04 22:06:06.291053000,7.639052978515625,1.3330582835316658,1.321492348900437,-3.992337405790389
2024-12-04 22:06:06.301129200,7.649129150390625,3.065484133929014,1.394984870612621,-3.8782244121372695
2024-12-04 22:06:06.311203800,7.659203857421875,6.723350807917118,1.1374293284475805,-3.1068142154440284
2024-12-04 22:06:06.321280000,7.669280029296875,8.967856412124632,1.19136608581841,-1.9167977906689049
2024-12-04 22:06:06.331356200,7.679356201171875,6.171424781408906,1.5003063627839088,-1.6479256124585866
2024-12-04 22:06:06.341432000,7.68943212890625,2.6169863331913947,1.548723479950428,-1.8592592094138265
2024-12-04 22:06:06.351508000,7.699508056640625,0.0635492198467254,1.680913105303049,-1.8430197300136089
2024-12-04 22:06:06.361583900,7.709583984375,-1.8743889740064736,1.8801672651469707,-1.2601762949332591
2024-12-04 22:06:06.371660000,7.719659912109375,-3.424863389277458,2.231203639563918,-0.481277788311243
2024-12-04 22:06:06.381736000,7.72973583984375,-4.506387875151634,2.730586408886313,0.1924380500882863
2024-12-04 22:06:06.391812000,7.73981201171875,-3.213342453056573,3.786571964356303,0.1025087728381156
2024-12-04 22:06:06.401888300,7.74988818359375,-0.2902855531170964,5.7923453848123545,-1.8353528486475348
2024-12-04 22:06:06.411963000,7.759962890625,1.054670381218195,7.3150675775438545,-4.905021282523871
2024-12-04 22:06:06.422039000,7.7700390625,0.3019512948609888,7.095967145979404,-7.184872925400733
2024-12-04 22:06:06.432115200,7.780115234375,-1.0604781907141207,5.916838025921583,-8.380134265092014
2024-12-04 22:06:06.442191000,7.790191162109375,-1.4960853840880095,4.59453552968204,-8.631495628792047
2024-12-04 22:06:06.452267000,7.80026708984375,-1.4802601845771073,4.172752132868767,-8.608742529714107
2024-12-04 22:06:06.462343000,7.810343017578125,-1.0489251155644654,4.737070607960224,-8.608800397381186
2024-12-04 22:06:06.472419000,7.820419189453125,0.1229204233564436,5.554769969880581,-9.09647343968749
2024-12-04 22:06:06.482495000,7.830494873046875,2.290826772008092,6.116930974677205,-9.915484468728303
2024-12-04 22:06:06.492571100,7.840571044921875,5.369172579467296,6.17415800576508,-10.755046118366716
2024-12-04 22:06:06.502646000,7.85064599609375,7.598497565677762,5.525765993714332,-11.17058506783247
2024-12-04 22:06:06.512722000,7.860721923828125,6.455315957313776,4.828039749652147,-10.996544844222068
2024-12-04 22:06:06.522798000,7.870798095703125,2.982128974372148,4.270834905958176,-10.118357988113164
2024-12-04 22:06:06.532874000,7.8808740234375,0.1610463020026683,3.417422425621748,-8.255725795134902
2024-12-04 22:06:06.542950000,7.890949951171875,-1.4487749129891394,2.4417484242290257,-6.1505649487316605
2024-12-04 22:06:06.553026000,7.901026123046875,-2.6146751336395737,1.9845634591668844,-4.572614497514069
2024-12-04 22:06:06.563102000,7.91110205078125,-3.3195974266856907,2.119490985050797,-3.4453029507160187
2024-12-04 22:06:06.573178000,7.92117822265625,-3.389580478972196,3.002803513610363,-2.628914086872339
2024-12-04 22:06:06.583254000,7.93125390625,-2.846016038095951,4.372072343686223,-1.602260424348712
2024-12-04 22:06:06.593330000,7.941329833984375,-2.3355834669709203,5.282504349839687,-0.8725367213927209
2024-12-04 22:06:06.603405000,7.951405029296875,-2.174396879714727,6.030845513373613,-0.2525675246194004
2024-12-04 22:06:06.613481000,7.96148095703125,-1.6772984219372271,6.70607643251121,0.6646564066965133
2024-12-04 22:06:06.623557000,7.97155712890625,-0.6578910772800445,7.312372347110509,1.9403405788198111
2024-12-04 22:06:06.633633000,7.981633056640625,0.4170177898466586,8.164432243794202,2.87412335768342
2024-12-04 22:06:06.643709000,7.991708984375,0.8513760060727595,9.457896183562278,4.591838545683026
2024-12-04 22:06:06.653785000,8.00178515625,1.0827975745499134,10.790428397393226,6.557835251545906
2024-12-04 22:06:06.663861000,8.011861083984375,0.7464566649615764,11.193664330124854,8.050774300432204
2024-12-04 22:06:06.673937200,8.021937255859376,-0.5587702663797884,10.691675762218235,9.134561470541357
2024-12-04 22:06:06.684013000,8.032012939453125,-2.1445897704720496,7.2093784211039535,9.990253001725671
2024-12-04 22:06:06.694088000,8.042087890625,-4.503285232961177,2.2251631903558966,10.330933401823044
2024-12-04 22:06:06.704164000,8.0521640625,-7.012885542666912,-0.3804232124209404,9.143549663639067
2024-12-04 22:06:06.714240000,8.062239990234374,-6.821154179543257,-1.8586515989094967,7.699332852345704
2024-12-04 22:06:06.724316200,8.072316162109376,-5.612313811832666,-2.454125675243139,6.484522178053855
2024-12-04 22:06:06.734391800,8.082391845703125,-3.7784675683557984,-2.755110024768114,5.90531826851964
2024-12-04 22:06:06.744468000,8.092468017578126,-2.4760031605303285,-3.034232086575031,5.782520740890503
2024-12-04 22:06:06.754544000,8.102544189453125,-1.967052790787071,-3.331916810032725,5.679356134492158
2024-12-04 22:06:06.764620000,8.1126201171875,-2.604458860051632,-3.9467204407364127,5.8876803204983466
2024-12-04 22:06:06.774696200,8.1226962890625,-3.226272077256441,-4.56120784509778,6.115625737297535
2024-12-04 22:06:06.784771800,8.132771728515625,-3.101737350571155,-4.894301735588908,6.267291047492623
2024-12-04 22:06:06.794847000,8.142846923828126,-2.2196390201069414,-5.236553330525756,6.650439885485172
2024-12-04 22:06:06.804923100,8.152923095703125,-1.2655623718857765,-5.72611028688252,7.166626490092277
2024-12-04 22:06:06.814999000,8.1629990234375,-1.5476432834982872,-6.050982292473316,7.742374121692777
2024-12-04 22:06:06.825075000,8.173074951171875,-1.95859256708622,-6.516354071122407,8.343245673155785
2024-12-04 22:06:06.835150800,8.18315087890625,-1.91728805840388,-6.986001627394557,8.599742061656713
2024-12-04 22:06:06.845227000,8.19322705078125,-0.6264101896062493,-7.51651486351788,8.257441366881132
2024-12-04 22:06:06.855303200,8.20330322265625,1.047811747495085,-7.5004960411310195,6.881150675344466
2024-12-04 22:06:06.865379600,8.213379638671874,1.864764967223257,-6.893869871664047,4.852205345876515
2024-12-04 22:06:06.875454500,8.223454345703125,2.05187992259264,-5.83495060082972,3.034336715993285
2024-12-04 22:06:06.885530400,8.2335302734375,2.1168973152957857,-4.6165614835292095,1.6050737282037737
2024-12-04 22:06:06.895606500,8.2436064453125,2.3092155383966864,-3.431538044735789,0.6720993431136012
2024-12-04 22:06:06.905682700,8.2536826171875,1.92438868418932,-2.4483751488924024,0.088065529204905
2024-12-04 22:06:06.915758600,8.263758544921876,0.5557330175757408,-1.7640543298482894,-0.2847106755942106
2024-12-04 22:06:06.925834500,8.27383447265625,-1.0023545030474663,-1.0972592306226492,-0.9079308369874952
2024-12-04 22:06:06.935910400,8.283910400390624,-1.9537481957949696,-0.4465449131041765,-2.039158388185501
2024-12-04 22:06:06.945986600,8.293986572265625,-1.950380180666596,0.2758405559182167,-3.554000349061191
2024-12-04 22:06:06.956062500,8.3040625,-0.4920167705990373,1.153276885920763,-5.312561049929261
2024-12-04 22:06:06.966137300,8.314137451171876,0.8541172676049172,2.0888392416775226,-7.243404609346389
2024-12-04 22:06:06.976213500,8.324213623046875,1.2054432726182045,2.577331783673168,-8.49603677251041
2024-12-04 22:06:06.986289400,8.334289306640626,1.4957215192116795,1.8691309073477984,-8.435472705954313
2024-12-04 22:06:06.996365600,8.344365478515625,2.0746599096775054,0.7133434999108315,-7.140997543317079
2024-12-04 22:06:07.006441500,8.35444140625,2.0418167937397955,0.0464747509270906,-6.204350314933062
2024-12-04 22:06:07.016517400,8.364517333984375,0.7261399992503226,0.1100491052150726,-5.276974188241362
2024-12-04 22:06:07.026593500,8.374593505859375,1.301045188677311,2.0345862579643725,-2.638633516854048
2024-12-04 22:06:07.036669400,8.38466943359375,3.316823870319128,6.036557461279631,1.638252944228053
2024-12-04 22:06:07.046744600,8.39474462890625,3.4629110881209373,10.129363366252184,5.441891194197535
2024-12-04 22:06:07.056820700,8.40482080078125,1.29992758282423,11.143588339835404,7.420531108534336
2024-12-04 22:06:07.066896400,8.414896484375,-1.043894135659933,8.352017008632421,8.49127817980647
2024-12-04 22:06:07.076972500,8.42497265625,-3.3568250413179395,2.465513330698013,8.981040303346514
2024-12-04 22:06:07.087048400,8.43504833984375,-3.027966011917591,-1.8741420135080813,8.878898025733232
2024-12-04 22:06:07.097124600,8.44512451171875,-1.4933352085970342,-3.970235756358504,8.815200337326527
2024-12-04 22:06:07.107200500,8.455200439453124,-1.0011270070791245,-4.418505009037256,8.859511188217997
2024-12-04 22:06:07.117276400,8.4652763671875,-1.095791496157646,-3.935300052055717,9.3077605671525
2024-12-04 22:06:07.127351600,8.4753515625,-1.785447684880346,-2.399421440631151,9.47936216543913
2024-12-04 22:06:07.137427500,8.485427490234375,-2.246053418171406,-0.565874472361803,9.131879099589586
2024-12-04 22:06:07.147503600,8.495503662109375,-2.3363106122016903,0.9320523018091916,8.700487916475534
2024-12-04 22:06:07.157579500,8.50557958984375,-1.8796493787527084,2.0831559353441,8.082594503062962
2024-12-04 22:06:07.167655400,8.515655517578125,-1.880892072290182,3.457556867611408,6.842541250964999
2024-12-04 22:06:07.177731600,8.525731689453124,-2.71363936573863,4.381771899923682,5.455044690281152
2024-12-04 22:06:07.187807500,8.535807373046875,-3.2026912951827047,4.564605670842528,4.044998151876032
2024-12-04 22:06:07.197883600,8.545883544921875,-3.3306080655217167,4.227043110504746,2.8246470868527886
2024-12-04 22:06:07.207958500,8.55595849609375,-3.6394086417555807,3.577817570239305,1.6954592247888445
2024-12-04 22:06:07.218034400,8.566034423828125,-4.171046497994661,2.5576900946140286,0.7855193860664963
2024-12-04 22:06:07.228110600,8.576110595703126,-4.676848486709594,1.5856752002507448,0.1278355217963457
2024-12-04 22:06:07.238186500,8.5861865234375,-5.070235225600004,0.9529834461569784,-0.4513005831986665
2024-12-04 22:06:07.248262400,8.596262451171874,-5.147953256052732,0.5590116008549928,-0.8992039251744747
2024-12-04 22:06:07.258338600,8.606338623046875,-5.429878684842587,0.0755097067534923,-1.293107381415367
2024-12-04 22:06:07.268414500,8.61641455078125,-5.536910488063096,-0.3366121277451515,-1.792455371685326
2024-12-04 22:06:07.278490600,8.62649072265625,-5.18061400116086,-0.6237012229084968,-2.126925811226666
2024-12-04 22:06:07.288565800,8.636565673828125,-5.192161815613508,-0.7921808897823095,-2.467306351594627
2024-12-04 22:06:07.298641400,8.646641357421874,-4.824953474074602,-0.940162543028593,-2.757769599366188
2024-12-04 22:06:07.308717600,8.656717529296875,-4.265279609918594,-1.1779273430526256,-2.9152865581989285
2024-12-04 22:06:07.318793500,8.66679345703125,-3.1010745027482507,-1.479571033269167,-3.008900661441684
2024-12-04 22:06:07.328869600,8.67686962890625,-0.5319143350929022,-1.5805156255304813,-3.272443753583729
2024-12-04 22:06:07.338945500,8.686945556640625,2.4572856005787846,-1.0738958906918763,-3.7232448628276575
2024-12-04 22:06:07.349021400,8.697021484375,3.9260190134912727,-0.2836684730648994,-4.322965490689874
2024-12-04 22:06:07.359097600,8.70709765625,4.279291768658161,0.2996574848353862,-4.938803725138306
2024-12-04 22:06:07.369172500,8.71717236328125,4.687976029923558,-0.0890618467658758,-5.450033584120869
2024-12-04 22:06:07.379248600,8.72724853515625,4.780539162808656,-0.3229781546682119,-5.547745185810327
2024-12-04 22:06:07.389324500,8.737324462890625,4.062757972711324,-0.2470598671138286,-5.572519561582803
2024-12-04 22:06:07.399400400,8.747400390625,2.7222435279548165,0.1910299368560314,-5.424305853146314
2024-12-04 22:06:07.409476600,8.7574765625,0.996308793142438,0.7117787348121404,-5.375267973732948
2024-12-04 22:06:07.419552500,8.767552490234374,-0.613631664314866,1.4497925655990838,-5.233461794251204
2024-12-04 22:06:07.429628700,8.777628662109375,-1.0640024193175135,1.8853987360596656,-4.643238185791671
2024-12-04 22:06:07.439703600,8.78770361328125,0.0616774346254766,1.8607102850049733,-3.85619787376821
2024-12-04 22:06:07.449779500,8.797779541015625,2.422306203264743,1.4943588525563478,-2.819126277604699
2024-12-04 22:06:07.459855600,8.807855712890625,4.647875490203499,1.4017723387956618,-1.886458766506612
2024-12-04 22:06:07.469931500,8.817931640625,5.218247273984551,1.5663625970155,-1.229950960278511
2024-12-04 22:06:07.480007400,8.82800732421875,4.354339410857856,1.6844821959614753,-0.6898164938509463
2024-12-04 22:06:07.490083600,8.83808349609375,3.1109131751954555,1.7950176233887671,0.0960460065647959
2024-12-04 22:06:07.500159500,8.848159423828125,1.4237183592744171,2.255232749927044,0.7617237921983003
2024-12-04 22:06:07.510234600,8.858234619140624,-0.4999028476737439,3.032516514828801,1.4187611752584577
2024-12-04 22:06:07.520310500,8.868310546875,-0.9701927935026584,3.757340609174967,2.7875656026929616
2024-12-04 22:06:07.530386400,8.878386474609375,-0.3971908073484897,4.680892209142447,3.72658014473021
2024-12-04 22:06:07.540462600,8.888462646484374,0.617600567945838,5.774129929164052,1.598196243649721
2024-12-04 22:06:07.550538500,8.89853857421875,0.9191146404333412,6.6665148219734425,-3.1296041394010183
2024-12-04 22:06:07.560614700,8.90861474609375,-0.7552617565773427,6.630628100556135,-6.618909605711698
2024-12-04 22:06:07.570690600,8.918690673828126,-2.659220377808809,6.228546598556638,-8.744087988749145
2024-12-04 22:06:07.580765400,8.928765380859375,-3.202889448103309,6.13228811828494,-10.014987630009651
2024-12-04 22:06:07.590841600,8.938841552734376,-2.3871827213048933,6.448764051452279,-10.775317337501049
2024-12-04 22:06:07.600917500,8.94891748046875,-1.0584446390599012,7.284785836526751,-11.56195754429102
2024-12-04 22:06:07.610993700,8.95899365234375,0.3104099111266434,7.648285386675596,-12.366770536631345
2024-12-04 22:06:07.621069300,8.9690693359375,2.219793041624874,7.208448446777463,-12.764157743334769
2024-12-04 22:06:07.631145500,8.9791455078125,4.045124700865149,6.406083432111144,-12.995020508885382
2024-12-04 22:06:07.641221600,8.9892216796875,5.138163683444262,5.55629966366589,-13.072027760720252
2024-12-04 22:06:07.651297500,8.999297607421875,5.041740952521562,5.323711974018812,-12.86141517151594
2024-12-04 22:06:07.661372400,9.009372314453126,3.352745663049817,5.563097653242945,-11.54722057840824
2024-12-04 22:06:07.671448600,9.019448486328123,1.3803829292863607,5.14441456053257,-8.524206635940075
2024-12-04 22:06:07.681524500,9.0295244140625,-0.1660363653749227,4.444768162062764,-5.343926494529843
2024-12-04 22:06:07.691600600,9.0396005859375,-1.6602081709265708,4.098562276542187,-2.821056076623499
2024-12-04 22:06:07.701676500,9.049676513671876,-3.0299264983356,4.521634544122219,-0.981004256504774
2024-12-04 22:06:07.711752400,9.05975244140625,-3.724400462603569,5.259622071424126,0.3532145952388644
2024-12-04 22:06:07.721828400,9.069828369140623,-3.466397176671028,5.863608540037274,1.5711132986739278
2024-12-04 22:06:07.731903500,9.079903564453126,-2.957215482389927,6.717571055471897,2.678706584045291
2024-12-04 22:06:07.741979600,9.089979736328123,-2.51042916174531,7.877130382663011,3.438351816403866
2024-12-04 22:06:07.752055300,9.10005517578125,-2.0887387039124965,9.3527611538738,4.646160502979159
2024-12-04 22:06:07.762131500,9.11013134765625,-0.8783353246688842,10.042639022523163,5.86266453718543
2024-12-04 22:06:07.772207600,9.12020751953125,0.9107190064013004,10.812668286252022,8.361763326621055
2024-12-04 22:06:07.782283500,9.130283447265626,2.2284604783356188,10.598201359707115,10.628155768465994
2024-12-04 22:06:07.792359700,9.140359619140623,1.9093197098731995,8.13536104761064,12.352695249527692
2024-12-04 22:06:07.802434600,9.1504345703125,0.6846457401495426,4.064150303852558,12.330168944942953
2024-12-04 22:06:07.812510500,9.160510498046875,-0.5493628980219364,1.0532897405147552,10.90635194759965
2024-12-04 22:06:07.822586600,9.170586669921876,-1.7487234897255897,-0.6291004516035318,8.97584682635665
2024-12-04 22:06:07.832662500,9.18066259765625,-2.9147850384175777,-1.8904934288501736,7.112892561817168
2024-12-04 22:06:07.842738700,9.19073876953125,-3.0155531050682067,-2.797428825059533,5.672656929114461
2024-12-04 22:06:07.852814300,9.200814453125,-2.661097862118482,-3.7157308339357376,5.065290170413255
2024-12-04 22:06:07.862889500,9.210889404296877,-2.9321581980228424,-4.66784860317409,4.982039640274643
2024-12-04 22:06:07.872965000,9.220965087890624,-3.809572316193581,-5.517698422592878,5.118150238463282
2024-12-04 22:06:07.883041000,9.231041015625,-5.2380806862235065,-6.085454470917582,5.260867687571048
2024-12-04 22:06:07.893117200,9.2411171875,-5.687963803839684,-6.496622950214147,5.390018968141079
2024-12-04 22:06:07.903193300,9.251193359375,-6.0516579997777935,-6.812979640915989,5.418863954353332
2024-12-04 22:06:07.913269000,9.26126904296875,-5.737961468195915,-6.572645282664895,5.180961791685223
2024-12-04 22:06:07.923345200,9.27134521484375,-4.926058225333691,-6.11479513169229,4.687597259739041
2024-12-04 22:06:07.933420300,9.281420166015623,-4.504356077063084,-5.475581866875291,4.174333556841313
2024-12-04 22:06:07.943496200,9.29149609375,-4.241261605471372,-4.82883703750968,3.8596304785653945
2024-12-04 22:06:07.953572000,9.301572021484375,-3.4056840570330618,-4.559097721076012,4.049031352914869
2024-12-04 22:06:07.963648000,9.31164794921875,-1.8262473127804693,-4.668730646705627,4.634359882809221
2024-12-04 22:06:07.973724200,9.32172412109375,0.1168893264986574,-4.830796354883909,5.170817414289712
2024-12-04 22:06:07.983800000,9.331800048828123,1.1853041554309427,-4.805664251714944,5.1613475751549
2024-12-04 22:06:07.993876200,9.341876220703124,1.4400174599073827,-4.668943997195362,4.6387253845423455
2024-12-04 22:06:08.003951000,9.351951171875,0.8595558053970337,-4.4962978582918645,3.819556534591317
2024-12-04 22:06:08.014027000,9.362027099609374,-0.0402267964482307,-4.382486185672879,2.7552082244455813
2024-12-04 22:06:08.024103200,9.372103271484375,-0.2422048282980918,-4.243155456393957,1.6289444331347942
2024-12-04 22:06:08.034179300,9.382179443359377,0.0798969819270074,-4.027189815723896,0.6190639184966683
2024-12-04 22:06:08.044255200,9.392255126953126,0.1698549007497727,-3.545321660304069,-0.1871263535462319
2024-12-04 22:06:08.054331100,9.4023310546875,0.3515944466911256,-2.9666695394337177,-0.8094836144998669
2024-12-04 22:06:08.064406300,9.41240625,0.5699065043568611,-2.163848597693443,-1.4394538346752523
2024-12-04 22:06:08.074482200,9.422482177734375,0.8783296255804598,-1.0688134728610514,-1.9617846411257984
2024-12-04 22:06:08.084558300,9.432558349609376,1.3636873766817152,0.1180021100461482,-2.44599263767004
2024-12-04 22:06:08.094634000,9.442634033203126,1.7512848646461965,1.4733523048847912,-3.079693861067295
2024-12-04 22:06:08.104710100,9.452710205078125,2.356929037338495,2.9953315702945,-3.968835826432705
2024-12-04 22:06:08.114786000,9.4627861328125,3.02931947235316,4.573103450074791,-4.919672908210754
2024-12-04 22:06:08.124862200,9.4728623046875,3.403964393633604,5.944029984229803,-5.737171194601059
2024-12-04 22:06:08.134937000,9.48293701171875,3.818344820713997,6.575326484572887,-5.89668254212141
2024-12-04 22:06:08.145013000,9.493012939453124,4.372679661929607,5.948524373039603,-5.127234293150901
2024-12-04 22:06:08.155089200,9.503089111328125,5.530519325721263,4.714476498836278,-4.289777214576303
2024-12-04 22:06:08.165165300,9.513165283203126,5.982647007393837,3.665161507171392,-3.8651866513878095
2024-12-04 22:06:08.175241200,9.5232412109375,3.753504976534843,3.4552468371033664,-1.121210015052557
2024-12-04 22:06:08.185317000,9.533317138671874,0.9332476490736008,4.377699535918236,4.429301128339767
2024-12-04 22:06:08.195392300,9.543392333984375,0.6665757573865354,4.580620986098051,9.419563238036632
2024-12-04 22:06:08.205468200,9.55346826171875,0.4153472262859344,2.5097896947979925,12.36118250736594
2024-12-04 22:06:08.215544300,9.56354443359375,-1.6469395240306852,-0.6338952846646309,13.492439284658431
2024-12-04 22:06:08.225620000,9.573619873046876,-3.230933054804802,-3.949249666953087,12.777587718272208
2024-12-04 22:06:08.235696000,9.583696044921876,-4.030693439930677,-5.5260021405577655,10.84239823860526
2024-12-04 22:06:08.245772000,9.59377197265625,-4.458627760589122,-5.364873420968651,8.850923977136611
2024-12-04 22:06:08.255848200,9.60384814453125,-4.081834429103136,-3.879486979418993,7.640926256084442
2024-12-04 22:06:08.265923300,9.61392333984375,-3.603757482659816,-1.7486498399674892,7.264076810497045
2024-12-04 22:06:08.275999000,9.6239990234375,-3.1523885104000566,0.3054699705064296,7.234211249065399
2024-12-04 22:06:08.286075100,9.6340751953125,-2.226715095973015,2.1422493448257445,7.104422255113721
2024-12-04 22:06:08.296151000,9.644151123046877,-1.9379753109931943,3.8962574969559904,6.605031887006759
2024-12-04 22:06:08.306227200,9.654227294921874,-2.198890684980154,5.203299880221485,5.740759574481845
2024-12-04 22:06:08.316303400,9.664303466796875,-2.746367915385961,5.480792879521847,4.811268647593259
2024-12-04 22:06:08.326378000,9.6743779296875,-3.073929306191206,5.073356572490931,3.7591301229402414
2024-12-04 22:06:08.336454100,9.6844541015625,-3.0682395701169964,4.472919905313849,2.905035213297605
2024-12-04 22:06:08.346530300,9.6945302734375,-2.9563597423434254,3.651332888305187,2.239172426486016
2024-12-04 22:06:08.356606200,9.704606201171876,-2.9702082349538803,2.458447045573592,1.6002701273143292
2024-12-04 22:06:08.366682000,9.71468212890625,-3.076772420662641,1.0205869098305702,1.183053307764232
2024-12-04 22:06:08.376758000,9.724758056640624,-2.963276974385977,0.1842944911211728,0.7193503391101956
2024-12-04 22:06:08.386833200,9.734833251953123,-2.8957226105511187,-0.4169096532970666,0.3126347475692629
2024-12-04 22:06:08.396909300,9.744909423828124,-2.9628292306184765,-0.798172239151597,0.08406506139189
2024-12-04 22:06:08.406985000,9.75498486328125,-2.769395739752054,-0.6685527565479278,-0.1917024292901158
2024-12-04 22:06:08.417061000,9.76506103515625,-2.6317852583944794,-0.4621849653065204,-0.6108027975644916
2024-12-04 22:06:08.427137000,9.775136962890626,-2.761447411096096,-0.4399672882795333,-1.063852489452809
2024-12-04 22:06:08.437213200,9.785213134765623,-2.8249206430971623,-0.5456266341030598,-1.4651225289389491
2024-12-04 22:06:08.447288000,9.7952880859375,-2.845389430630207,-0.7554255688369274,-1.759675968633592
2024-12-04 22:06:08.457364000,9.805364013671875,-3.161355076187849,-1.1820727722942828,-1.971961313355714
2024-12-04 22:06:08.467440000,9.815440185546874,-3.354184171420336,-1.4243342992156742,-2.249087817431241
2024-12-04 22:06:08.477516300,9.825516357421876,-3.201477827739716,-1.4362889409035444,-2.564996618235111
2024-12-04 22:06:08.487592200,9.83559228515625,-3.2066824106454845,-1.1279729333162307,-2.871803974825144
2024-12-04 22:06:08.497668000,9.845668212890626,-3.1566426607131954,-0.5945780042767524,-3.0802485723406074
2024-12-04 22:06:08.507743200,9.8557431640625,-3.276063989907503,0.0012087912678718,-3.161807496130466
2024-12-04 22:06:08.517819100,9.865819091796874,-3.152760850843787,0.3380903836041689,-3.27190073274821
2024-12-04 22:06:08.527895300,9.875895263671875,-1.8150076874941583,0.5161678999066353,-3.608210078154504
2024-12-04 22:06:08.537971200,9.88597119140625,0.9910505803532896,0.9810206231176852,-4.569093045389652
2024-12-04 22:06:08.548047000,9.896047119140626,3.123364660489559,0.9916612595975398,-4.992933374732733
2024-12-04 22:06:08.558123000,9.906123046875,3.80153514021039,1.3451923734396696,-5.068285260576009
2024-12-04 22:06:08.568199200,9.91619921875,4.275288962757587,1.6943080089271068,-5.164813205438852
2024-12-04 22:06:08.578274300,9.9262744140625,5.39066778743863,2.410337386921048,-4.957917006409168
2024-12-04 22:06:08.588350000,9.936349853515624,6.435141768813133,3.1276363464593886,-4.700539158898592
2024-12-04 22:06:08.598426000,9.946426025390624,6.691465138834714,3.1398031695932147,-3.910177301236987
2024-12-04 22:06:08.608502300,9.956502197265625,6.444347404053807,2.596860660007596,-2.702251125761866
2024-12-04 22:06:08.618578200,9.966578125,6.4668544194161885,1.7502374014198778,-1.4364227964162826
2024-12-04 22:06:08.628653000,9.976653076171877,6.419602838897704,0.7053542547225952,-0.6526140136599541
2024-12-04 22:06:08.638729200,9.986729248046874,4.405828190554678,0.0641436786085367,-1.239975510686636
2024-12-04 22:06:08.648805000,9.99680517578125,2.1085209704861043,0.7059995668888092,-2.388548164439201
2024-12-04 22:06:08.658881300,10.00688134765625,-1.3148157937459646,2.113881912997365,-3.0342592668429016
2024-12-04 22:06:08.668957200,10.016957275390626,-4.249320993286371,3.696459147232771,-3.0023510936677456
2024-12-04 22:06:08.679033000,10.027033203125,-5.0933419604212045,5.6663411700963975,-2.710923969300091
2024-12-04 22:06:08.689109000,10.03710888671875,-1.815458646132052,7.270249361652135,-3.133233143553137
2024-12-04 22:06:08.699184000,10.04718408203125,2.740986222347617,7.565166373962163,-4.856080141483247
2024-12-04 22:06:08.709260300,10.05726025390625,2.595470082432032,7.22646808759272,-6.969419910427928
2024-12-04 22:06:08.719336000,10.0673359375,-1.0113526330173015,6.487810698205232,-8.339760753649474
2024-12-04 22:06:08.729412000,10.077412109375,-3.2710137207806107,5.605276752802729,-8.775624698263407
2024-12-04 22:06:08.739488000,10.087488037109376,-2.832735700762272,5.870577210006117,-9.174192639183998
2024-12-04 22:06:08.749563100,10.097563232421876,-1.1296557718366385,6.794000799679756,-9.664528178697823
2024-12-04 22:06:08.759639000,10.10763916015625,0.4303635936319828,7.586981899929047,-10.17446390621662
2024-12-04 22:06:08.769715000,10.11771484375,1.8843125482581555,7.8496730514168735,-10.507129342162608
2024-12-04 22:06:08.779791000,10.127791015625,3.438469889825582,7.341734635195135,-10.85879057047963
2024-12-04 22:06:08.789867300,10.1378671875,4.754248537254333,6.0891667694389815,-11.28964399345517
2024-12-04 22:06:08.799943200,10.147943115234376,5.051930922624469,4.762137829199433,-11.40988248425126
2024-12-04 22:06:08.810018000,10.15801806640625,3.7664497983038414,4.0762662735819815,-10.907311732542514
2024-12-04 22:06:08.820094200,10.16809423828125,1.7340402998566626,4.048686777260899,-9.877046309262514
2024-12-04 22:06:08.830170000,10.178170166015626,-0.6353174264222383,4.161884701895714,-8.198045759582518
2024-12-04 22:06:08.840246300,10.188246337890623,-2.4046143330991265,4.175678833970427,-5.962204523345828
2024-12-04 22:06:08.850322200,10.198322265625,-3.667580258750915,4.770989828696846,-3.997726697613299
2024-12-04 22:06:08.860398000,10.208398193359375,-3.848170634657144,5.462745766177773,-2.314676580281556
2024-12-04 22:06:08.870472700,10.21847265625,-3.268752790111303,6.189024735507369,-0.5697554054483771
2024-12-04 22:06:08.880548600,10.228548583984375,-2.905073791742325,7.077564643326402,1.218281565272808
2024-12-04 22:06:08.890624800,10.238624755859377,-2.728688466310501,8.151554642042518,2.865725239433348
2024-12-04 22:06:08.900701000,10.248700927734374,-2.511407651388645,9.632539633762836,4.547840414002537
2024-12-04 22:06:08.910776800,10.25877685546875,-2.490198859143257,11.425450640261172,6.2385191265165805
2024-12-04 22:06:08.920852700,10.268852783203124,-2.568605456382036,13.111230474817752,7.858081398800015
2024-12-04 22:06:08.930927900,10.278927978515624,-1.7311960163414477,12.67566229828,9.622753568285702
2024-12-04 22:06:08.941003800,10.289003662109376,-0.5970809635410085,9.796306300640106,10.82320604687929
2024-12-04 22:06:08.951080000,10.299079833984376,0.2068517570997588,6.142904204845428,11.020455296641588
2024-12-04 22:06:08.961155600,10.309155517578125,0.4708639463245868,2.7437983571589,11.058319455611706
2024-12-04 22:06:08.971231700,10.319231689453124,0.0185982809534296,-0.014343582651019,11.295440112513305
2024-12-04 22:06:08.981307000,10.329306884765623,-0.5700538038730621,-1.4373229601264,10.12192941685915
2024-12-04 22:06:08.991382800,10.3393828125,-1.2398866633594037,-2.171305343440175,8.749379665416479
2024-12-04 22:06:09.001459000,10.349458984375,-2.259004085159302,-2.8066286150813102,7.911258277714252
2024-12-04 22:06:09.011534600,10.35953466796875,-3.90918186045885,-3.335202992096543,7.460623464947939
2024-12-04 22:06:09.021610800,10.36961083984375,-5.585401254987716,-3.681263331666589,7.267060210222005
2024-12-04 22:06:09.031686700,10.379686767578123,-6.498363656401634,-4.271633947381377,7.459323488265276
2024-12-04 22:06:09.041761800,10.38976171875,-6.133937639057636,-4.980989838960767,7.8537161893278356
2024-12-04 22:06:09.051837700,10.399837646484375,-4.896169283026457,-5.359077886432409,7.983646637576818
2024-12-04 22:06:09.061913900,10.409913818359374,-3.6407273231387136,-5.687911781391501,7.796570406782626
2024-12-04 22:06:09.071989800,10.41998974609375,-3.36745632544756,-6.218453074565529,7.391129072961211
2024-12-04 22:06:09.082066000,10.43006591796875,-3.449311601835489,-6.9608490659594535,6.977876773127913
2024-12-04 22:06:09.092141800,10.440141845703126,-2.974602670520544,-7.846344199255109,6.903291780003905
2024-12-04 22:06:09.102216700,10.450216796875,-2.1528432195544243,-8.843446773123741,7.020258701783418
2024-12-04 22:06:09.112292900,10.46029296875,-1.5423405009150504,-9.527125787132976,7.019099594876169
2024-12-04 22:06:09.122368800,10.47036865234375,-0.7882977647386491,-9.974390246683358,6.763453685724735
2024-12-04 22:06:09.132445000,10.48044482421875,0.9335141910552978,-9.76498703326881,6.128854052183032
2024-12-04 22:06:09.142520600,10.4905205078125,3.444373560911417,-8.40582575570941,4.601720765011012
2024-12-04 22:06:09.152595700,10.500595703125,5.1935412872731685,-6.352573960241675,2.0766177657470104
2024-12-04 22:06:09.162671900,10.510671875,4.54656790984869,-4.5551861005902285,-0.4631956036537885
2024-12-04 22:06:09.172747800,10.520747802734377,2.9186639256775377,-3.008812398636341,-2.2116998976707456
2024-12-04 22:06:09.182823700,10.53082373046875,1.1881764959968626,-1.5243325505375862,-3.1042601470470426
2024-12-04 22:06:09.192899600,10.540899658203124,-0.2029972918950021,-0.3875286605119705,-3.3392382389619946
2024-12-04 22:06:09.202975700,10.550975830078125,-1.9986954448938368,0.5289969863414764,-3.587750935232639
2024-12-04 22:06:09.213051000,10.56105078125,-3.7288381527900696,1.6445359700202942,-3.8341616907879694
2024-12-04 22:06:09.223126500,10.57112646484375,-3.411173886620998,3.0926953814595937,-4.714997892361879
2024-12-04 22:06:09.233202700,10.58120263671875,-1.052611841253191,4.4781005228221415,-5.969132861304283
2024-12-04 22:06:09.243278800,10.59127880859375,2.106856690535694,5.151483768266439,-6.462550000220537
2024-12-04 22:06:09.253354800,10.601354736328124,3.864195886784792,4.840668929600716,-5.992323182755708
2024-12-04 22:06:09.263430000,10.611429931640624,6.123646546667814,4.159866932332515,-5.494403471723198
2024-12-04 22:06:09.273505800,10.621505859375,7.673554267966747,3.87130718009472,-6.210106686502694
2024-12-04 22:06:09.283581700,10.631581787109376,7.688800936937332,4.126346940046549,-5.437752194696665
2024-12-04 22:06:09.293657900,10.641657958984377,6.931356429493427,5.834519223675131,-0.4643018113300204
2024-12-04 22:06:09.303733800,10.651733642578124,5.0111716267347335,8.532842946860194,3.775497320373356
2024-12-04 22:06:09.313810000,10.661809814453123,0.8120107948899269,8.68361627665162,6.619179070302844
2024-12-04 22:06:09.323884800,10.671884765625,-2.6246330485522744,5.2157507809937,8.33642547174692
2024-12-04 22:06:09.333960700,10.681960693359375,-4.841230070614815,-0.7031669738113879,8.877603894269466
2024-12-04 22:06:09.344036900,10.692036865234376,-4.53602167365402,-4.981813430303335,8.717160818856954
2024-12-04 22:06:09.354112800,10.70211279296875,-2.7136615775704382,-6.6070064019501205,8.627634277188777
2024-12-04 22:06:09.364188700,10.712188720703123,-1.998672210148721,-6.180394854328036,8.271344220027327
2024-12-04 22:06:09.374263800,10.722263916015624,-1.8367887266695493,-4.767628243309259,8.034198428684473
2024-12-04 22:06:09.384339700,10.732339599609375,-1.8409692272245883,-2.4998861404210326,7.928003660809993
2024-12-04 22:06:09.394415900,10.742415771484374,-1.866393591338396,-0.3239326789140701,8.154111340788006
2024-12-04 22:06:09.404491800,10.75249169921875,-2.1608533614002168,1.476366684269905,8.548633221188187
2024-12-04 22:06:09.414567700,10.762567626953125,-2.6071453226566312,2.8769834232896563,8.772885628688336
2024-12-04 22:06:09.424642800,10.772642822265626,-3.1813223439395424,3.996525212869048,8.358797462552785
2024-12-04 22:06:09.434718700,10.78271875,-3.584991991913318,4.857393269908428,7.314020114317536
2024-12-04 22:06:09.444794600,10.792794677734374,-3.801667242157459,5.246518844223022,5.898142677801848
2024-12-04 22:06:09.454870800,10.802870849609375,-3.907369842600822,4.878957451462745,4.618935226923227
2024-12-04 22:06:09.464946700,10.81294677734375,-3.782104463553429,3.830452607136965,3.642200902822613
2024-12-04 22:06:09.475022800,10.82302294921875,-3.675651337003708,2.763389192813635,2.7557395548433066
2024-12-04 22:06:09.485098000,10.833097900390625,-3.641259238058328,1.616483010968566,2.0749689756266774
2024-12-04 22:06:09.495173600,10.843173583984376,-3.55067354272604,0.7919254537165165,1.5397402552887796
2024-12-04 22:06:09.505249800,10.853249755859377,-3.41495691229105,0.3737672616630792,1.0849532912790774
2024-12-04 22:06:09.515325700,10.86332568359375,-3.281258051419258,0.2018307323336601,0.7188245616704225
2024-12-04 22:06:09.525401900,10.87340185546875,-3.128755121356249,0.2310650101244449,0.4085430992290377
2024-12-04 22:06:09.535476700,10.883476806640624,-2.830885104459524,0.4314519733905792,0.0670864905947819
2024-12-04 22:06:09.545552600,10.893552734375,-2.516429863464832,0.5931248828589916,-0.3462392032682895
2024-12-04 22:06:09.555628800,10.90362890625,-2.401819149422645,0.4567237772911787,-0.6846818343762308
2024-12-04 22:06:09.565704700,10.91370458984375,-2.672559167331457,-0.1388116738408804,-0.961948404509574
2024-12-04 22:06:09.575780900,10.92378076171875,-3.073419603103399,-0.8335299682587385,-1.1544931298427283
2024-12-04 22:06:09.585855700,10.933855712890624,-2.905658313632012,-1.2274176424086094,-1.4827908720985057
2024-12-04 22:06:09.595931600,10.943931640625,-2.551224113470316,-1.308014443168044,-1.861703679956496
2024-12-04 22:06:09.606007800,10.9540078125,-2.6756115406394003,-1.1315630667626857,-2.101642024627328
2024-12-04 22:06:09.616084000,10.964083984375,-2.751040583372116,-0.8217337320029735,-2.3645991335749623
2024-12-04 22:06:09.626159600,10.97415966796875,-2.7725375449091194,-0.5071715235024691,-2.598043147790432
2024-12-04 22:06:09.636234800,10.98423486328125,-2.1991244937360284,-0.3548001108646392,-2.9482614838227628
2024-12-04 22:06:09.646311000,10.994310791015623,-0.8532249218750745,-0.2308212644964456,-3.179021373520792
2024-12-04 22:06:09.656386800,11.00438671875,1.2732464966475965,0.1275152038007974,-3.73809785630554
2024-12-04 22:06:09.666462700,11.014462646484375,2.906067478954792,0.2885901473760605,-4.464978298659623
2024-12-04 22:06:09.676538600,11.02453857421875,4.050414623966813,0.2933341270327568,-4.50041844535321
2024-12-04 22:06:09.686614800,11.03461474609375,4.741081597167253,0.1942348703771829,-4.439718477457761
2024-12-04 22:06:09.696690000,11.04468994140625,4.783185877925157,0.4480892199367284,-4.302743663655221
2024-12-04 22:06:09.706765600,11.054765625,4.450033535245061,1.3772300182133912,-4.334073452420532
2024-12-04 22:06:09.716841700,11.064841796875,3.844871008589864,2.4939058969676493,-4.255685852143168
2024-12-04 22:06:09.726917600,11.074917724609374,2.7831998086988925,3.3339287343770265,-4.03363533860147
2024-12-04 22:06:09.736993800,11.084993896484375,3.791715756985545,3.623883740365505,-3.410590826036036
2024-12-04 22:06:09.747069000,11.09506884765625,9.331173006922006,2.4684873780727385,-2.072047973613441
2024-12-04 22:06:09.757144600,11.10514453125,10.673414129340648,0.656006578707695,-1.6781521161571145
2024-12-04 22:06:09.767220700,11.115220703125,6.476171698337793,0.2971300121843814,-2.751882879415154
2024-12-04 22:06:09.777297000,11.125296875,1.1760570191361008,0.9890881942391396,-3.4258392485722897
2024-12-04 22:06:09.787372800,11.135372802734375,-3.674861063408851,2.294831769865751,-3.120579121424257
2024-12-04 22:06:09.797447700,11.14544775390625,-7.190591303047538,3.844216928595304,-2.2383827374130485
2024-12-04 22:06:09.807523800,11.15552392578125,-9.043466656643153,4.636546286937594,-1.3068871927037835
2024-12-04 22:06:09.817599700,11.165599853515625,-7.048153839924932,4.6957454948812725,-1.2912076852738856
2024-12-04 22:06:09.827676000,11.175676025390626,-2.119385917241126,5.280678887978196,-2.795330683736503
2024-12-04 22:06:09.837751800,11.185751708984377,1.4337468552052974,6.658453096070885,-5.254619148570299
2024-12-04 22:06:09.847826700,11.19582666015625,1.7290514055281876,7.985401956811547,-7.531859147644043
2024-12-04 22:06:09.857902800,11.20590283203125,-0.5765281144537031,8.195051838463545,-8.876678596118092
2024-12-04 22:06:09.867979000,11.21597900390625,-1.927396049311757,7.619497099086642,-9.317913712376356
2024-12-04 22:06:09.878055200,11.22605517578125,-1.3552853129088878,7.614566656947136,-9.485005139762162
2024-12-04 22:06:09.888131000,11.236131103515625,0.1642122186876833,8.250330073571204,-9.596240824413298
2024-12-04 22:06:09.898206200,11.246206298828126,2.2021552397340534,9.259334682157634,-9.707978613367676
2024-12-04 22:06:09.908282000,11.2562822265625,4.681327093428373,10.203769495677948,-10.11271735187769
2024-12-04 22:06:09.918358000,11.26635791015625,7.180579612120986,10.246762249708176,-10.997489431595804
2024-12-04 22:06:09.928434200,11.27643408203125,6.459381307056546,8.863876397690177,-11.86132393722534
2024-12-04 22:06:09.938510000,11.286510009765625,2.350948209363222,6.572684445631504,-11.29264843596816
2024-12-04 22:06:09.948585000,11.2965849609375,-0.5754588047217577,4.337814684775472,-9.669622871488333
2024-12-04 22:06:09.958661000,11.3066611328125,-1.9749615180850029,3.133696669411659,-7.981827605456114
2024-12-04 22:06:09.968737000,11.316737060546876,-2.738283977651596,3.1028987955659626,-6.367129724338651
2024-12-04 22:06:09.978813200,11.326813232421877,-3.087843849775195,3.8917251142233606,-4.885192546460032
2024-12-04 22:06:09.988889300,11.336889404296874,-2.951161589178443,4.786879471746087,-3.636561143369972
2024-12-04 22:06:09.998964000,11.3469638671875,-2.430701545035839,5.688373553684354,-2.476213588410616
2024-12-04 22:06:10.009040100,11.3570400390625,-2.0739456239283083,6.834227011606097,-1.188075812101364
2024-12-04 22:06:10.019116300,11.3671162109375,-1.7842367016553875,8.176846319687366,0.2852202325515449
2024-12-04 22:06:10.029192200,11.377192138671877,-1.579540643018484,9.576029226511716,1.8165717219404875
2024-12-04 22:06:10.039268400,11.387268310546874,-1.5875871713519096,10.75953524647951,3.429238243360817
2024-12-04 22:06:10.049343200,11.39734326171875,-2.033002203643322,11.567171479547024,5.415329350486397
2024-12-04 22:06:10.059419100,11.407419189453124,-2.2358535111963747,11.289939761531352,7.528147433644532
2024-12-04 22:06:10.069495300,11.417495361328124,-1.333709440916777,8.870385633453726,9.54482101829946
2024-12-04 22:06:10.079571200,11.4275712890625,-0.3151823862254619,5.5348447877049445,11.23235383400321
2024-12-04 22:06:10.089647000,11.437647216796876,0.3449883264243603,2.5913123782306906,12.29915538251996
2024-12-04 22:06:10.099722200,11.44772216796875,1.022929673564434,0.3202981218039989,12.283325360703468
2024-12-04 22:06:10.109798100,11.457798095703126,1.4221604623079298,-1.3116127599209546,11.065573372262715
2024-12-04 22:06:10.119874300,11.467874267578123,0.3986556557366624,-2.8994267257660624,9.650150109255314
2024-12-04 22:06:10.129950000,11.477949951171874,-1.2282137612223625,-4.165306493037939,8.456598496091365
2024-12-04 22:06:10.140026000,11.488026123046875,-3.241689426618814,-5.38527908013761,7.671443559423088
2024-12-04 22:06:10.150101200,11.498101318359376,-4.913052613288164,-6.257180572366714,7.181763268947601
2024-12-04 22:06:10.160177200,11.50817724609375,-6.369869378435611,-6.891810016524792,7.0425126191675655
2024-12-04 22:06:10.170253000,11.518253173828125,-7.14440881306529,-7.475201440876722,6.909232275968789
2024-12-04 22:06:10.180329000,11.528328857421876,-6.2279357731819145,-7.537469388741254,6.520342848497629
2024-12-04 22:06:10.190405000,11.538405029296875,-4.651761976248026,-7.354675365310907,6.003296996712685
2024-12-04 22:06:10.200480300,11.548480224609374,-3.49408890119493,-7.130397823369503,5.520926152467728
2024-12-04 22:06:10.210556000,11.558555908203124,-3.073673285603523,-6.503061458829045,5.047275205773115
2024-12-04 22:06:10.220632000,11.568632080078125,-3.441683591175079,-5.672307969546318,4.760146655382216
2024-12-04 22:06:10.230708200,11.578708251953126,-4.129619678106904,-5.269418073773384,4.9688417205274105
2024-12-04 22:06:10.240783000,11.588783203125,-4.5390404369533055,-5.409326895201206,5.746175754311681
2024-12-04 22:06:10.250859300,11.598859375,-4.246344607824087,-5.539184278213978,6.76896338905692
2024-12-04 22:06:10.260935200,11.60893505859375,-3.1416368147611617,-5.470783526682854,7.36914169755876
2024-12-04 22:06:10.271011000,11.619010986328124,-0.6925032487168907,-5.270994529309869,7.175131283587217
2024-12-04 22:06:10.281087200,11.629087158203124,2.469478727197647,-4.683680963078141,6.032755730909109
2024-12-04 22:06:10.291162400,11.639162353515625,4.951816935968399,-3.8545202959448095,4.055340389931201
2024-12-04 22:06:10.301238000,11.649238037109376,5.643211638921499,-3.1025948441833258,1.784785275448859
2024-12-04 22:06:10.311314200,11.659314208984377,4.919820207726955,-2.328714165723324,-0.3997162341728806
2024-12-04 22:06:10.321390000,11.66939013671875,2.974547725462913,-1.5050567721813917,-2.1771137374579905
