time,seconds_elapsed,z,y,x
2024-12-04 22:02:21.120294400,0.01429443359375,-0.1969441324472427,-1.0064213275909424,-0.0947751626372337
2024-12-04 22:02:21.130320400,0.0243203125,-0.1275139153003692,-0.952671229839325,-0.062583141028881
2024-12-04 22:02:21.140347100,0.03434716796875,-0.1541630327701568,-0.7211465239524841,0.0288972537964582
2024-12-04 22:02:21.150373000,0.044373046875,-0.2952762246131897,-0.4388602375984192,0.1501110345125198
2024-12-04 22:02:21.160399000,0.054399169921875,-0.4335388243198395,-0.2590857744216919,0.2262580394744873
2024-12-04 22:02:21.170426400,0.06442626953125,-0.6069742441177368,-0.0872460976243019,0.2842550277709961
2024-12-04 22:02:21.180452400,0.074452392578125,-0.7145305275917053,0.0925801172852516,0.3307951688766479
2024-12-04 22:02:21.190479400,0.084479248046875,-0.7318575978279114,0.2249314934015274,0.3319182097911834
2024-12-04 22:02:21.200505300,0.09450537109375,-0.7091689705848694,0.2613593935966491,0.2859018743038177
2024-12-04 22:02:21.210532000,0.104531982421875,-0.6653900742530823,0.1884228587150573,0.2019926011562347
2024-12-04 22:02:21.220558000,0.11455810546875,-0.6151071190834045,0.0358481556177139,0.115467868745327
2024-12-04 22:02:21.230585300,0.12458544921875,-0.5485997200012207,-0.1733934879302978,0.0411262661218643
2024-12-04 22:02:21.240611300,0.134611328125,-0.4945612847805023,-0.4200515151023865,-0.0458488389849662
2024-12-04 22:02:21.250637300,0.14463720703125,-0.4761428534984588,-0.6970556974411011,-0.1545953005552292
2024-12-04 22:02:21.260664300,0.154664306640625,-0.4303642213344574,-0.8374072313308716,-0.2434193342924118
2024-12-04 22:02:21.270690300,0.164690185546875,-0.2952223718166351,-0.6926149129867554,-0.261612981557846
2024-12-04 22:02:21.280717300,0.17471728515625,-0.0998202264308929,-0.3818681538105011,-0.2287105321884155
2024-12-04 22:02:21.290743300,0.184743408203125,0.0998255088925361,-0.0173266679048538,-0.1585175991058349
2024-12-04 22:02:21.300770300,0.194770263671875,0.2678868472576141,0.3030377924442291,-0.0732441917061805
2024-12-04 22:02:21.310796300,0.20479638671875,0.3663497567176819,0.5292909145355225,0.009804893285036
2024-12-04 22:02:21.320823300,0.2148232421875,0.4012512862682342,0.631618857383728,0.0830500796437263
2024-12-04 22:02:21.330849300,0.224849365234375,0.4005511403083801,0.5478294491767883,0.1436002403497696
2024-12-04 22:02:21.340875300,0.234875244140625,0.3765709698200226,0.3143855333328247,0.2006368935108184
2024-12-04 22:02:21.350902300,0.24490234375,0.3243612945079803,-0.002952222013846,0.2707355618476867
2024-12-04 22:02:21.360928300,0.25492822265625,0.2917850613594055,-0.3160510659217834,0.3602162003517151
2024-12-04 22:02:21.370955300,0.264955322265625,0.2935954928398132,-0.5670965909957886,0.4576351642608642
2024-12-04 22:02:21.380981200,0.274981201171875,0.3470121622085571,-0.6715686321258545,0.5685555934906006
2024-12-04 22:02:21.391008300,0.28500830078125,0.4402893781661987,-0.6379057168960571,0.6921443939208984
2024-12-04 22:02:21.401034200,0.2950341796875,0.5670658349990845,-0.4225714802742004,0.8469934463500977
2024-12-04 22:02:21.411060200,0.305060302734375,0.6900650262832642,-0.167813241481781,1.0168468952178955
2024-12-04 22:02:21.421087200,0.315087158203125,0.7607375979423523,0.0382075943052768,1.1682239770889282
2024-12-04 22:02:21.431113200,0.32511328125,0.7738912105560303,0.2308641225099563,1.2920101881027222
2024-12-04 22:02:21.441140200,0.33514013671875,0.7448847889900208,0.3549908995628357,1.358462691307068
2024-12-04 22:02:21.451166200,0.345166259765625,0.6939305067062378,0.3214425444602966,1.3573284149169922
2024-12-04 22:02:21.461193200,0.355193115234375,0.629426121711731,0.1756503880023956,1.3346701860427856
2024-12-04 22:02:21.471219200,0.36521923828125,0.5799869298934937,-0.0626474097371101,1.3004072904586792
2024-12-04 22:02:21.481246200,0.37524609375,0.5463082194328308,-0.4778262674808502,1.273731708526611
2024-12-04 22:02:21.491272200,0.385272216796875,0.5393635034561157,-1.0387394428253174,1.300977349281311
2024-12-04 22:02:21.501298200,0.395298095703125,0.5860334038734436,-1.7369405031204224,1.4154661893844604
2024-12-04 22:02:21.511325400,0.405325439453125,0.6174935698509216,-2.490565299987793,1.640400528907776
2024-12-04 22:02:21.521351400,0.415351318359375,0.6254770159721375,-3.2403392791748047,1.984609603881836
2024-12-04 22:02:21.531378200,0.425378173828125,0.6021197438240051,-4.051612854003906,2.385604858398437
2024-12-04 22:02:21.541404200,0.435404052734375,0.6365253329277039,-4.882381916046143,2.7908902168273926
2024-12-04 22:02:21.551431200,0.44543115234375,0.9479671120643616,-5.318347454071045,2.9558653831481934
2024-12-04 22:02:21.561457200,0.45545703125,1.3035492897033691,-5.627269744873047,2.9283552169799805
2024-12-04 22:02:21.571484400,0.465484375,1.5171470642089844,-6.074922561645508,2.86264705657959
2024-12-04 22:02:21.581510400,0.475510498046875,1.7109094858169556,-6.454867839813232,2.737287759780884
2024-12-04 22:02:21.591536400,0.485536376953125,1.9234853982925413,-6.561343193054199,2.5639894008636475
2024-12-04 22:02:21.601563100,0.495563232421875,2.1643996238708496,-6.377003192901611,2.402207374572754
2024-12-04 22:02:21.611589000,0.505589111328125,2.4120635986328125,-5.887970447540283,2.221911668777466
2024-12-04 22:02:21.621616400,0.515616455078125,2.745337724685669,-4.792359352111816,1.919059038162232
2024-12-04 22:02:21.631642000,0.52564208984375,3.0821962356567383,-3.642874002456665,1.4860917329788208
2024-12-04 22:02:21.641669400,0.53566943359375,3.0756330490112305,-2.378664970397949,0.7681588530540466
2024-12-04 22:02:21.651695400,0.5456953125,3.383618116378784,-0.7848547697067261,-0.0393347404897213
2024-12-04 22:02:21.661722000,0.55572216796875,3.524746417999268,0.0378828383982181,-1.023350477218628
2024-12-04 22:02:21.671748000,0.565748046875,3.50391173362732,-0.4499872326850891,-1.74056875705719
2024-12-04 22:02:21.681774000,0.575774169921875,3.1919138431549072,-1.7599917650222778,-2.018589973449707
2024-12-04 22:02:21.691801000,0.585801025390625,2.8222439289093018,-2.7967495918273926,-1.8451669216156008
2024-12-04 22:02:21.701827300,0.595827392578125,2.553163528442383,-3.226945161819458,-1.3188921213150024
2024-12-04 22:02:21.711854300,0.605854248046875,2.3974266052246094,-3.0440428256988525,-0.6401270031929016
2024-12-04 22:02:21.721880300,0.61588037109375,2.225821018218994,-2.35518741607666,0.0113928280770778
2024-12-04 22:02:21.731907000,0.625906982421875,1.9258701801300049,-1.7580671310424805,0.4800788164138794
2024-12-04 22:02:21.741933000,0.63593310546875,1.4632219076156616,-1.2682863473892212,0.7523365616798401
2024-12-04 22:02:21.751960300,0.645960205078125,0.901746928691864,-0.542147159576416,0.9030248522758484
2024-12-04 22:02:21.761986300,0.655986328125,0.4451100826263428,0.2392935007810592,0.8300443887710571
2024-12-04 22:02:21.772012300,0.66601220703125,0.126662865281105,0.9281685948371888,0.4616343975067138
2024-12-04 22:02:21.782039000,0.6760390625,-0.15304034948349,1.2428172826766968,-0.0307286903262138
2024-12-04 22:02:21.792065000,0.68606494140625,-0.4904212951660156,1.6312603950500488,-0.6611905097961426
2024-12-04 22:02:21.802092000,0.696092041015625,-0.8530280590057373,1.9206531047821045,-1.4419503211975098
2024-12-04 22:02:21.812118300,0.7061181640625,-1.092773199081421,1.927806377410889,-2.2109899520874023
2024-12-04 22:02:21.822145300,0.716145263671875,-1.1663641929626465,2.070756435394287,-2.88173770904541
2024-12-04 22:02:21.832171300,0.726171142578125,-1.2899651527404783,2.44009017944336,-3.5997679233551025
2024-12-04 22:02:21.842197200,0.736197265625,-1.3986014127731323,2.7120604515075684,-4.069186210632324
2024-12-04 22:02:21.852224000,0.74622412109375,-1.4503148794174194,2.8531861305236816,-4.29491138458252
2024-12-04 22:02:21.862250000,0.75625,-1.4767316579818726,2.784445285797119,-4.450231075286865
2024-12-04 22:02:21.872277200,0.76627734375,-1.4740298986434937,2.449225902557373,-4.584287166595459
2024-12-04 22:02:21.882303200,0.77630322265625,-1.3101993799209597,1.9873530864715576,-4.67588472366333
2024-12-04 22:02:21.892330200,0.786330322265625,-0.9671357870101928,1.6429898738861084,-4.712376117706299
2024-12-04 22:02:21.902356200,0.796356201171875,-0.5497068166732788,1.4001182317733765,-4.671075344085693
2024-12-04 22:02:21.912383000,0.806383056640625,-0.0325558483600616,1.115229606628418,-4.593005180358887
2024-12-04 22:02:21.922409000,0.816408935546875,0.5602881908416748,0.7234166860580444,-4.488614082336426
2024-12-04 22:02:21.932435200,0.826435302734375,1.1805336475372314,0.2066038995981216,-4.336970806121826
2024-12-04 22:02:21.942462200,0.836462158203125,1.747469425201416,-0.2969749569892883,-4.108157157897949
2024-12-04 22:02:21.952488200,0.84648828125,2.196610689163208,-0.5419474244117737,-3.8394927978515625
2024-12-04 22:02:21.962515200,0.85651513671875,2.490431785583496,-0.611564040184021,-3.567423105239868
2024-12-04 22:02:21.972541200,0.866541259765625,2.621304035186768,-0.5847630500793457,-3.313297748565674
2024-12-04 22:02:21.982568200,0.876568115234375,2.5850446224212646,-0.5125298500061035,-3.0954790115356445
2024-12-04 22:02:21.992594200,0.88659423828125,2.390704393386841,-0.4319298267364502,-2.9106550216674805
2024-12-04 22:02:22.002621200,0.89662109375,2.070740222930908,-0.4059843122959137,-2.7662928104400635
2024-12-04 22:02:22.012647200,0.906647216796875,1.7478349208831787,-0.3916213512420654,-2.6784682273864746
2024-12-04 22:02:22.022673200,0.916673095703125,1.483260989189148,-0.3214563131332397,-2.6180291175842285
2024-12-04 22:02:22.032700200,0.9267001953125,1.2846784591674805,-0.2956367135047912,-2.5736639499664307
2024-12-04 22:02:22.042726400,0.936726318359375,1.149991512298584,-0.3019979894161224,-2.554291248321533
2024-12-04 22:02:22.052753200,0.946753173828125,1.061750054359436,-0.3974891006946563,-2.566226959228516
2024-12-04 22:02:22.062779100,0.956779052734375,1.0122936964035034,-0.5226931571960449,-2.623793125152588
2024-12-04 22:02:22.072806100,0.96680615234375,1.009306788444519,-0.5838720798492432,-2.713869571685791
2024-12-04 22:02:22.082832100,0.97683203125,1.0077383518218994,-0.5483654141426086,-2.8411922454833984
2024-12-04 22:02:22.092859400,0.986859375,0.8999682664871216,-0.5678938627243042,-3.005549907684326
2024-12-04 22:02:22.102885000,0.996885009765625,0.5841414332389832,-0.7398844957351685,-3.224583864212036
2024-12-04 22:02:22.112911000,1.0069111328125,0.0944875851273536,-1.0552126169204712,-3.557513952255249
2024-12-04 22:02:22.122938000,1.016938232421875,-0.4535472989082336,-1.4278478622436523,-3.991680860519409
2024-12-04 22:02:22.132964000,1.026964111328125,-0.9603425860404968,-1.4638023376464844,-4.449419975280762
2024-12-04 22:02:22.142991000,1.0369912109375,-1.254597783088684,-1.2873507738113403,-4.915098667144775
2024-12-04 22:02:22.153017300,1.047017333984375,-1.3763929605484009,-1.090123176574707,-5.3385539054870605
2024-12-04 22:02:22.163044000,1.057044189453125,-1.3979076147079468,-0.9091179966926576,-5.6835527420043945
2024-12-04 22:02:22.173070000,1.067070068359375,-1.303777813911438,-0.6950096487998962,-5.902155876159668
2024-12-04 22:02:22.183096000,1.077095947265625,-1.1085563898086548,-0.475315660238266,-5.953229427337647
2024-12-04 22:02:22.193123000,1.087123046875,-0.8800452351570129,-0.4188622236251831,-5.863834857940674
2024-12-04 22:02:22.203149000,1.097149169921875,-0.6570433974266052,-0.5544241666793823,-5.6875505447387695
2024-12-04 22:02:22.213176300,1.10717626953125,-0.4664015173912048,-0.5784701108932495,-5.416046619415283
2024-12-04 22:02:22.223202300,1.117202392578125,-0.3571666181087494,-0.3834069371223449,-5.011961936950684
2024-12-04 22:02:22.233229000,1.12722900390625,-0.4516941905021667,-0.0482126884162426,-4.467296600341797
2024-12-04 22:02:22.243255000,1.137255126953125,-0.7309034466743469,0.2658647000789642,-3.804584503173828
2024-12-04 22:02:22.253282000,1.147281982421875,-1.052773356437683,0.4996236860752105,-3.1018972396850586
2024-12-04 22:02:22.263308300,1.157308349609375,-1.3270184993743896,0.5999450087547302,-2.352433204650879
2024-12-04 22:02:22.273334300,1.167334228515625,-1.336024284362793,0.5949332118034363,-1.44917631149292
2024-12-04 22:02:22.283361300,1.177361328125,-0.8887000679969788,0.7087612152099609,-0.4020671546459198
2024-12-04 22:02:22.293387300,1.18738720703125,-0.2124859094619751,1.3432902097702026,0.4384493827819824
2024-12-04 22:02:22.303414000,1.1974140625,0.4417683184146881,1.5076712369918823,0.8299592137336731
2024-12-04 22:02:22.313440000,1.20743994140625,0.5343509912490845,1.3885074853897097,0.6310487985610962
2024-12-04 22:02:22.323467300,1.21746728515625,0.2130361199378967,1.729145050048828,-0.0750343650579452
2024-12-04 22:02:22.333493200,1.2274931640625,-0.2556650638580322,2.1257731914520264,-0.9299138784408568
2024-12-04 22:02:22.343519200,1.237519287109375,-0.8117716312408447,2.2663044929504395,-1.211050510406494
2024-12-04 22:02:22.353546200,1.247546142578125,-1.2493867874145508,2.481397151947021,-1.1588512659072876
2024-12-04 22:02:22.363572200,1.257572265625,-1.591122269630432,2.52197265625,-1.0169912576675415
2024-12-04 22:02:22.373599200,1.26759912109375,-1.820299863815308,2.510583639144897,-0.8598335385322571
2024-12-04 22:02:22.383625200,1.277625244140625,-1.8538901805877688,2.4676437377929688,-0.6926389336585999
2024-12-04 22:02:22.393652200,1.28765234375,-1.5896060466766355,2.269169330596924,-0.3582500517368316
2024-12-04 22:02:22.403678200,1.29767822265625,-1.0261150598526,1.9810365438461304,0.1769509017467498
2024-12-04 22:02:22.413705200,1.307705322265625,-0.4452991485595703,1.64929461479187,0.8526026010513306
2024-12-04 22:02:22.423731200,1.317731201171875,-0.0763024613261222,1.2755687236785889,1.6066255569458008
2024-12-04 22:02:22.433757200,1.327757080078125,-0.021738551557064,1.029713749885559,2.408000230789185
2024-12-04 22:02:22.443784200,1.3377841796875,-0.2583096027374267,0.7383591532707214,3.1481471061706543
2024-12-04 22:02:22.453810200,1.34781005859375,-0.3787425458431244,0.5077376961708069,3.70196533203125
2024-12-04 22:02:22.463837200,1.357837158203125,-0.3630290329456329,0.5756818056106567,4.153962135314941
2024-12-04 22:02:22.473863200,1.36786328125,-0.5207858681678772,0.448390394449234,4.222291946411133
2024-12-04 22:02:22.483890200,1.37789013671875,-0.8830595016479492,0.0616507157683372,4.06601095199585
2024-12-04 22:02:22.493916200,1.387916259765625,-1.215775728225708,-0.1916603744029998,3.874873161315918
2024-12-04 22:02:22.503943200,1.397943115234375,-1.303930401802063,-0.2351404130458831,3.5655734539031982
2024-12-04 22:02:22.513969200,1.40796923828125,-1.1909332275390625,-0.2293192744255066,3.173429250717163
2024-12-04 22:02:22.523995100,1.4179951171875,-1.0639411211013794,-0.1566949039697647,2.7360281944274902
2024-12-04 22:02:22.534022100,1.428022216796875,-1.025653600692749,0.1224469766020774,2.204694986343384
2024-12-04 22:02:22.544048000,1.438048095703125,-0.9877368211746216,0.2638764083385467,1.882531762123108
2024-12-04 22:02:22.554075100,1.4480751953125,-0.9260998368263244,0.6703941226005554,1.8676174879074097
2024-12-04 22:02:22.564101000,1.45810107421875,-0.8887290358543396,0.7803472280502319,1.9549955129623413
2024-12-04 22:02:22.574128000,1.468128173828125,-1.0813838243484497,0.5440657138824463,1.9169977903366089
2024-12-04 22:02:22.584154000,1.478154052734375,-1.3056107759475708,0.4797150790691376,1.4358292818069458
2024-12-04 22:02:22.594180000,1.48818017578125,-1.513676404953003,0.443995714187622,0.7425878643989563
2024-12-04 22:02:22.604207400,1.498207275390625,-1.5375134944915771,0.6443079113960266,0.2987947762012481
2024-12-04 22:02:22.614233300,1.5082333984375,-1.2769266366958618,1.281570553779602,0.0508669950067997
2024-12-04 22:02:22.624259800,1.518259765625,-0.815134584903717,1.52152681350708,-0.0779221877455711
2024-12-04 22:02:22.634285800,1.528285888671875,-0.3532130122184753,1.3609716892242432,-0.08691968023777
2024-12-04 22:02:22.644313000,1.53831298828125,0.0905105173587799,1.1939136981964111,-0.1036321967840194
2024-12-04 22:02:22.654339000,1.548339111328125,0.5306380987167358,1.075825333595276,-0.1155626252293586
2024-12-04 22:02:22.664366000,1.558365966796875,0.8658742904663086,0.8318014144897461,-0.123954989016056
2024-12-04 22:02:22.674392000,1.56839208984375,1.0952000617980957,0.4850716888904571,-0.2142159044742584
2024-12-04 22:02:22.684418000,1.57841796875,1.326463222503662,0.3224444985389709,-0.2133436650037765
2024-12-04 22:02:22.694444800,1.58844482421875,1.6118909120559692,0.3411186039447784,-0.0277005694806575
2024-12-04 22:02:22.704471000,1.598470947265625,1.8670474290847776,0.4487352669239044,0.266063779592514
2024-12-04 22:02:22.714498000,1.608498046875,2.017598390579224,0.526958167552948,0.5739006996154785
2024-12-04 22:02:22.724524000,1.61852392578125,1.9638832807540887,0.4780203998088836,0.762677013874054
2024-12-04 22:02:22.734551000,1.628551025390625,1.7533633708953855,0.2519204318523407,0.8125910758972168
2024-12-04 22:02:22.744577000,1.638576904296875,1.5722817182540894,0.0925187245011329,0.6660348773002625
2024-12-04 22:02:22.754604000,1.64860400390625,1.4938881397247314,0.0590017773211002,0.5645828247070312
2024-12-04 22:02:22.764630000,1.658630126953125,1.4854633808135986,0.0173908974975347,0.4105529487133026
2024-12-04 22:02:22.774656000,1.668656005859375,1.2951408624649048,0.0899013206362724,0.1513735800981521
2024-12-04 22:02:22.784683000,1.67868310546875,0.8483671545982361,0.1178255826234817,-0.1492293924093246
2024-12-04 22:02:22.794709000,1.688708984375,0.3925522267818451,0.1299834549427032,-0.332165390253067
2024-12-04 22:02:22.804736000,1.698736083984375,-0.0230848975479602,-0.0398192107677459,-0.3885159194469452
2024-12-04 22:02:22.814762200,1.70876220703125,-0.4113236963748932,-0.2006040960550308,-0.36723592877388
2024-12-04 22:02:22.824789000,1.7187890625,-0.4604527652263641,-0.4487043619155884,-0.7362724542617798
2024-12-04 22:02:22.834815000,1.72881494140625,-0.6049481630325317,-0.0043902713805437,-1.1669352054595947
2024-12-04 22:02:22.844841000,1.738841064453125,-0.8366091251373291,0.0508048087358474,-1.338096022605896
2024-12-04 22:02:22.854868000,1.748867919921875,-1.1723666191101074,0.0763876587152481,-1.3253134489059448
2024-12-04 22:02:22.864894000,1.75889404296875,-1.536258101463318,0.1054088920354843,-1.1219158172607422
2024-12-04 22:02:22.874921000,1.7689208984375,-1.8232169151306152,0.2698870599269867,-0.6528095602989197
2024-12-04 22:02:22.884947000,1.778947021484375,-1.8832969665527344,0.4201958775520324,-0.0655500516295433
2024-12-04 22:02:22.894974000,1.788973876953125,-1.7427772283554075,0.6009201407432556,0.625559389591217
2024-12-04 22:02:22.905000000,1.799,-1.3072574138641355,0.5876128077507019,1.266283392906189
2024-12-04 22:02:22.915027000,1.80902685546875,-0.7987526059150696,0.6332218050956726,1.336882710456848
2024-12-04 22:02:22.925053200,1.81905322265625,-0.9192979335784912,0.7304505705833435,0.861425518989563
2024-12-04 22:02:22.935079200,1.8290791015625,-1.7242919206619265,1.2411750555038452,0.2496689260005951
2024-12-04 22:02:22.945106000,1.83910595703125,-2.5439486503601074,1.9298365116119385,-0.2920517027378082
2024-12-04 22:02:22.955132000,1.8491318359375,-3.192817687988281,2.597059488296509,-0.5459516048431396
2024-12-04 22:02:22.965159000,1.859158935546875,-3.4237234592437744,3.298248529434204,-0.5617654919624329
2024-12-04 22:02:22.975185000,1.869184814453125,-3.1014442443847656,3.5452115535736084,-0.3536173701286316
2024-12-04 22:02:22.985212200,1.879212158203125,-2.4311203956604004,2.905978918075561,-0.3700004816055298
2024-12-04 22:02:22.995238100,1.889238037109375,-1.4971659183502195,1.7362542152404783,-0.414102703332901
2024-12-04 22:02:23.005264100,1.89926416015625,-0.5646296143531799,1.149632453918457,-0.3598732948303222
2024-12-04 22:02:23.015291000,1.909290771484375,0.0186335425823926,0.7420801520347595,-0.5690816640853882
2024-12-04 22:02:23.025316900,1.91931689453125,0.0793744325637817,-0.1207315400242805,-1.0209604501724243
2024-12-04 22:02:23.035344100,1.92934423828125,-0.1425920575857162,-0.7263810038566589,-1.7175164222717283
2024-12-04 22:02:23.045370000,1.9393701171875,-0.3218151032924652,-1.185194492340088,-2.325203895568848
2024-12-04 22:02:23.055397000,1.949397216796875,-0.4411058127880096,-1.3621565103530884,-2.6137912273406982
2024-12-04 22:02:23.065423000,1.959423095703125,-0.4961422085762024,-1.3852252960205078,-2.346879243850708
2024-12-04 22:02:23.075449900,1.969449951171875,-0.4623584151268005,-1.3224146366119385,-1.579249143600464
2024-12-04 22:02:23.085475800,1.979475830078125,-0.3186485469341278,-1.4889992475509644,-0.8114330172538757
2024-12-04 22:02:23.095501800,1.989501708984375,-0.0255333147943019,-1.866185188293457,-0.2866123914718628
2024-12-04 22:02:23.105529000,1.999529052734375,0.4736163914203644,-2.3880603313446045,0.1066132336854934
2024-12-04 22:02:23.115555000,2.00955517578125,1.1358540058135986,-2.972867012023926,0.5470619797706604
2024-12-04 22:02:23.125582000,2.01958203125,1.8533014059066768,-3.471065044403076,1.1517726182937622
2024-12-04 22:02:23.135608000,2.029608154296875,2.511399745941162,-3.644326448440552,1.9890384674072263
2024-12-04 22:02:23.145635000,2.039635009765625,2.917508125305176,-3.84527039527893,2.3557372093200684
2024-12-04 22:02:23.155661000,2.0496611328125,3.111217498779297,-3.836742639541626,2.448200464248657
2024-12-04 22:02:23.165687000,2.05968701171875,3.360369682312012,-3.438030481338501,2.389910697937012
2024-12-04 22:02:23.175714000,2.069714111328125,3.807349681854248,-3.263347864151001,2.4518072605133057
2024-12-04 22:02:23.185740000,2.079739990234375,4.099453449249268,-3.29716420173645,2.4224393367767334
2024-12-04 22:02:23.195767000,2.08976708984375,4.046806335449219,-2.8926703929901123,2.0107452869415283
2024-12-04 22:02:23.205793000,2.09979296875,3.8913285732269287,-2.587496042251587,1.4489628076553345
2024-12-04 22:02:23.215820000,2.109820068359375,3.583257913589477,-2.094352960586548,0.916028618812561
2024-12-04 22:02:23.225846000,2.119845947265625,3.0673627853393555,-1.390042066574097,0.4952189922332763
2024-12-04 22:02:23.235873000,2.129873046875,2.377026557922364,-0.8428793549537659,0.2014108151197433
2024-12-04 22:02:23.245899000,2.13989892578125,1.7991819381713867,-0.5118007063865662,-0.0075853946618735
2024-12-04 22:02:23.255925000,2.149925048828125,1.3827697038650513,-0.2897157073020935,-0.1552243828773498
2024-12-04 22:02:23.265952000,2.159951904296875,1.0780999660491943,-0.2031297087669372,-0.3071726560592651
2024-12-04 22:02:23.275978000,2.16997802734375,0.887086808681488,-0.2517747282981872,-0.4136777818202972
2024-12-04 22:02:23.286005000,2.1800048828125,0.8481668829917908,-0.4719247221946716,-0.4842700660228729
2024-12-04 22:02:23.296031000,2.190031005859375,0.9595309495925904,-0.630218505859375,-0.5430982708930969
2024-12-04 22:02:23.306058000,2.20005810546875,1.3177483081817627,-0.8789694309234619,-0.5896046161651611
2024-12-04 22:02:23.316084000,2.210083984375,1.9239308834075928,-1.0351835489273071,-0.7346044182777405
2024-12-04 22:02:23.326111000,2.220111083984375,2.797502279281616,-0.8969311118125916,-1.0557775497436523
2024-12-04 22:02:23.336137000,2.230136962890625,3.740780830383301,-0.5643877983093262,-1.4838844537734983
2024-12-04 22:02:23.346163000,2.240162841796875,4.370791435241699,-0.5304442048072815,-1.8744885921478271
2024-12-04 22:02:23.356190000,2.25018994140625,4.616368293762207,-0.3047950565814972,-2.3002078533172607
2024-12-04 22:02:23.366216000,2.2602158203125,4.521080017089844,-0.076599396765232,-2.706113576889038
2024-12-04 22:02:23.376243200,2.2702431640625,4.026625633239746,0.132550373673439,-3.048908472061157
2024-12-04 22:02:23.386269200,2.280269287109375,3.369054079055786,0.9509125351905824,-3.291617155075073
2024-12-04 22:02:23.396296000,2.2902958984375,2.679253578186035,1.480289340019226,-3.2070136070251465
2024-12-04 22:02:23.406322000,2.300322021484375,2.208930015563965,1.7006618976593018,-2.797430515289306
2024-12-04 22:02:23.416349000,2.310348876953125,2.111780881881714,1.9538248777389529,-2.238340377807617
2024-12-04 22:02:23.426375000,2.320375,2.4126102924346924,2.218045711517334,-1.7471613883972168
2024-12-04 22:02:23.436401200,2.330401123046875,2.964630365371704,2.775590658187866,-1.415568232536316
2024-12-04 22:02:23.446428200,2.34042822265625,3.4624783992767334,3.549777269363404,-1.2658838033676147
2024-12-04 22:02:23.456454100,2.3504541015625,3.84787917137146,3.918325662612915,-1.3819024562835691
2024-12-04 22:02:23.466481000,2.36048095703125,4.025131702423096,4.110304832458496,-1.6646119356155396
2024-12-04 22:02:23.476507000,2.3705068359375,3.9852681159973145,4.594680309295654,-1.9887868165969849
2024-12-04 22:02:23.486534100,2.3805341796875,3.651284694671631,5.262226581573486,-2.2618556022644043
2024-12-04 22:02:23.496560000,2.39056005859375,3.0053470134735107,5.642364978790283,-2.455073595046997
2024-12-04 22:02:23.506586000,2.400586181640625,2.260796308517456,5.728878974914551,-2.589846611022949
2024-12-04 22:02:23.516613000,2.410613037109375,1.6815751791000366,5.694027423858643,-2.6252005100250244
2024-12-04 22:02:23.526639000,2.42063916015625,1.4359867572784424,4.65793514251709,-2.004795551300049
2024-12-04 22:02:23.536665900,2.430665771484375,1.6065757274627686,1.3575866222381592,-0.0897383689880371
2024-12-04 22:02:23.546691800,2.44069189453125,2.0368471145629883,-0.5162410736083984,1.3587552309036257
2024-12-04 22:02:23.556719000,2.450718994140625,2.564980745315552,-0.7529841065406799,1.9356515407562256
2024-12-04 22:02:23.566745000,2.4607451171875,3.539278745651245,0.1378516554832458,1.977215886116028
2024-12-04 22:02:23.576772000,2.470772216796875,4.3782639503479,1.2567687034606934,1.711706519126892
2024-12-04 22:02:23.586798000,2.480798095703125,4.561747074127197,1.315463304519653,1.5403823852539062
2024-12-04 22:02:23.596823800,2.49082373046875,4.400580883026123,0.3642905652523041,1.6943093538284302
2024-12-04 22:02:23.606851000,2.50085107421875,4.034867763519287,-1.0565873384475708,2.0344340801239014
2024-12-04 22:02:23.616877000,2.510876953125,3.501497507095337,-3.086172342300415,2.37066650390625
2024-12-04 22:02:23.626904000,2.520904052734375,2.899375915527344,-5.12971305847168,2.4192094802856445
2024-12-04 22:02:23.636930000,2.530929931640625,2.217595100402832,-7.070582389831543,2.013585090637207
2024-12-04 22:02:23.646957000,2.54095703125,1.9548728466033936,-8.561095237731934,1.5995763540267944
2024-12-04 22:02:23.656983000,2.550983154296875,3.787197351455689,-8.500088691711426,1.9693049192428589
2024-12-04 22:02:23.667009000,2.561009033203125,6.179649829864502,-8.104727745056152,2.5601041316986084
2024-12-04 22:02:23.677036000,2.5710361328125,7.651784420013428,-8.511082649230957,2.101141452789306
2024-12-04 22:02:23.687062000,2.58106201171875,7.681495666503906,-7.462892055511475,1.016111969947815
2024-12-04 22:02:23.697089000,2.591089111328125,5.235331058502197,-4.4007086753845215,-0.2463763505220413
2024-12-04 22:02:23.707115000,2.601114990234375,0.775349497795105,-1.2491931915283203,-0.9468838572502136
2024-12-04 22:02:23.717142000,2.61114208984375,-2.699477195739746,0.341094821691513,-0.6499107480049133
2024-12-04 22:02:23.727168000,2.62116796875,-4.326115131378174,0.8283627033233643,0.1242837458848953
2024-12-04 22:02:23.737195000,2.631195068359375,-4.645255088806152,0.7794350981712341,0.8296685814857483
2024-12-04 22:02:23.747221000,2.641220947265625,-4.127862930297852,0.3923908770084381,1.130364179611206
2024-12-04 22:02:23.757247000,2.6512470703125,-3.23707914352417,-0.0912410169839859,1.1418616771697998
2024-12-04 22:02:23.767274200,2.661274169921875,-2.351609468460083,-0.4302781522274017,1.0015723705291748
2024-12-04 22:02:23.777300200,2.67130029296875,-1.6872740983963013,-0.4570551514625549,0.7634303569793701
2024-12-04 22:02:23.787327000,2.681326904296875,-1.2840265035629272,-0.1761683076620102,0.5161713361740112
2024-12-04 22:02:23.797353000,2.69135302734375,-1.0890048742294312,0.4168020784854889,0.3311724960803985
2024-12-04 22:02:23.807380000,2.7013798828125,-0.9815464019775392,1.1814348697662354,0.2707931697368622
2024-12-04 22:02:23.817406000,2.711406005859375,-0.902583658695221,1.8218814134597776,0.5690045952796936
2024-12-04 22:02:23.827433200,2.72143310546875,-0.860384464263916,1.942923903465271,1.358253002166748
2024-12-04 22:02:23.837459200,2.731459228515625,-0.8969800472259521,1.8135027885437007,2.1667628288269043
2024-12-04 22:02:23.847485200,2.741485107421875,-1.0129008293151855,1.6340950727462769,2.733142137527466
2024-12-04 22:02:23.857512000,2.751511962890625,-1.128214716911316,1.4848214387893677,3.0437121391296387
2024-12-04 22:02:23.867538000,2.761537841796875,-1.2235580682754517,1.4513821601867676,3.12754774093628
2024-12-04 22:02:23.877565200,2.771565185546875,-1.279487133026123,1.5508288145065308,3.060352087020874
2024-12-04 22:02:23.887591200,2.781591064453125,-1.260353922843933,1.810426354408264,2.8877243995666504
2024-12-04 22:02:23.897618200,2.7916181640625,-1.178723931312561,2.09284782409668,2.556269407272339
2024-12-04 22:02:23.907644200,2.80164404296875,-1.0640485286712646,2.371687412261963,2.027791976928711
2024-12-04 22:02:23.917671000,2.8116708984375,-0.9517513513565063,2.69966983795166,1.4074047803878784
2024-12-04 22:02:23.927697000,2.82169677734375,-0.811689019203186,3.018099069595337,0.8084374666213989
2024-12-04 22:02:23.937723100,2.83172314453125,-0.6167011260986328,3.155147790908813,0.2920223176479339
2024-12-04 22:02:23.947750100,2.841750244140625,-0.3625490963459015,2.999276638031006,-0.1395960599184036
2024-12-04 22:02:23.957776100,2.851776123046875,-0.0970236882567405,2.487919330596924,-0.5693729519844055
2024-12-04 22:02:23.967803000,2.861802978515625,0.1302307993173599,1.5241552591323853,-1.0837796926498413
2024-12-04 22:02:23.977828900,2.871828857421875,0.2498093843460083,0.1506770402193069,-1.6920784711837769
2024-12-04 22:02:23.987856100,2.881856201171875,0.3290894627571106,-1.3588942289352417,-2.3237876892089844
2024-12-04 22:02:23.997882000,2.891882080078125,0.338203877210617,-2.7417352199554443,-2.5635194778442383
2024-12-04 22:02:24.007909000,2.9019091796875,0.1816292852163314,-3.147982358932495,-1.7405482530593872
2024-12-04 22:02:24.017935000,2.91193505859375,0.0044294605031609,-1.619737982749939,-0.8422949314117432
2024-12-04 22:02:24.027961000,2.921961181640625,0.0710048750042915,-0.095310628414154,-1.1025325059890747
2024-12-04 22:02:24.037987800,2.93198779296875,0.1887450963258743,-0.3658824563026428,-1.744632601737976
2024-12-04 22:02:24.048014000,2.94201416015625,0.2915463447570801,-2.2256557941436768,-2.081462383270264
2024-12-04 22:02:24.058041000,2.952041015625,0.7449181079864502,-3.692735195159912,-1.82113003730774
2024-12-04 22:02:24.068067000,2.962067138671875,1.189397931098938,-2.9138500690460205,-1.0027647018432615
2024-12-04 22:02:24.078094000,2.972093994140625,1.003995656967163,-1.1639790534973145,0.081458568572998
2024-12-04 22:02:24.088120000,2.9821201171875,0.528182864189148,-0.1426128447055816,0.8205795288085938
2024-12-04 22:02:24.098147000,2.99214697265625,0.1829447746276855,0.5300310850143433,0.8898166418075562
2024-12-04 22:02:24.108173000,3.002173095703125,0.0209001675248146,0.6705854535102844,0.4286746680736542
2024-12-04 22:02:24.118199000,3.012198974609375,0.0819693803787231,0.2596962451934814,-0.3441845178604126
2024-12-04 22:02:24.128226000,3.02222607421875,0.4112343788146972,-0.1179305762052536,-1.178885579109192
2024-12-04 22:02:24.138252000,3.032251953125,0.9458005428314208,-0.4235767722129822,-1.9806132316589355
2024-12-04 22:02:24.148279000,3.042279052734375,1.685935378074646,-1.3544374704360962,-2.560408592224121
2024-12-04 22:02:24.158305300,3.05230517578125,2.4495015144348145,-2.68070125579834,-2.901925802230835
2024-12-04 22:02:24.168332000,3.06233203125,2.930264949798584,-4.086441040039063,-2.97585129737854
2024-12-04 22:02:24.178358000,3.07235791015625,2.9050745964050293,-5.372523784637451,-2.788199186325073
2024-12-04 22:02:24.188385000,3.082385009765625,2.365424871444702,-6.180390357971191,-2.4826786518096924
2024-12-04 22:02:24.198411000,3.092410888671875,1.590669870376587,-6.174172401428223,-2.131518602371216
2024-12-04 22:02:24.208437000,3.10243701171875,1.0877745151519775,-5.523964405059815,-1.917138934135437
2024-12-04 22:02:24.218464300,3.11246435546875,1.057944893836975,-4.110317230224609,-2.002461671829224
2024-12-04 22:02:24.228490200,3.122490234375,1.3095327615737915,-2.0131964683532715,-2.2363476753234863
2024-12-04 22:02:24.238517000,3.13251708984375,1.5176901817321775,-0.2649355232715606,-2.156371593475342
2024-12-04 22:02:24.248543000,3.14254296875,1.5746248960494995,1.016509771347046,-1.7004297971725464
2024-12-04 22:02:24.258570000,3.152570068359375,1.4302682876586914,2.0784506797790527,-1.11764657497406
2024-12-04 22:02:24.268596000,3.162595947265625,1.2731280326843262,2.980297088623047,-0.6450207829475403
2024-12-04 22:02:24.278622200,3.172622314453125,1.240009307861328,3.520242691040039,-0.4739944338798523
2024-12-04 22:02:24.288649000,3.18264892578125,1.3379415273666382,3.3152003288269043,-0.5839025974273682
2024-12-04 22:02:24.298675000,3.192675048828125,1.4153481721878052,2.6563665866851807,-0.7631136178970337
2024-12-04 22:02:24.308702000,3.202701904296875,1.3168115615844729,2.103574275970459,-0.8124189972877502
2024-12-04 22:02:24.318728000,3.21272802734375,1.0532622337341309,1.7939969301223757,-0.7433416843414307
2024-12-04 22:02:24.328755200,3.222755126953125,0.6715163588523865,1.6622698307037354,-0.6285279989242554
2024-12-04 22:02:24.338781200,3.23278125,0.2607583403587341,1.6908292770385742,-0.4890300035476684
2024-12-04 22:02:24.348808000,3.242807861328125,-0.0999736711382865,1.843380331993103,-0.4093726277351379
2024-12-04 22:02:24.358834000,3.252833984375,-0.3475842475891113,1.9868242740631104,-0.4403899312019348
2024-12-04 22:02:24.368860000,3.26285986328125,-0.4595746695995331,2.073373317718506,-0.5922839641571045
2024-12-04 22:02:24.378887000,3.272886962890625,-0.4811630547046661,2.047118902206421,-0.7942107319831848
2024-12-04 22:02:24.388913200,3.2829130859375,-0.4709186851978302,1.9785016775131223,-0.978873610496521
2024-12-04 22:02:24.398940200,3.292940185546875,-0.4297504723072052,1.883185625076294,-1.137724995613098
2024-12-04 22:02:24.408966100,3.302966064453125,-0.3397373557090759,1.7116347551345823,-1.2823601961135864
2024-12-04 22:02:24.418993000,3.312992919921875,-0.223616361618042,1.4540424346923828,-1.399477243423462
2024-12-04 22:02:24.429019000,3.323018798828125,-0.1559058576822281,1.179103970527649,-1.4456678628921509
2024-12-04 22:02:24.439046100,3.333046142578125,-0.1730888336896896,0.8424277305603027,-1.440140962600708
2024-12-04 22:02:24.449072000,3.343072021484375,-0.233578011393547,0.4087713062763214,-1.4422125816345217
2024-12-04 22:02:24.459098000,3.35309814453125,-0.3016012609004974,-0.1291691213846206,-1.52069890499115
2024-12-04 22:02:24.469125000,3.363125,-0.3798475861549377,-0.6199197769165039,-1.6910885572433472
2024-12-04 22:02:24.479151000,3.373151123046875,-0.5189207792282104,-0.9253263473510742,-1.905495882034301
2024-12-04 22:02:24.489177900,3.383177734375,-0.68289715051651,-1.06415855884552,-2.1968164443969727
2024-12-04 22:02:24.499204000,3.3932041015625,-0.7191827297210693,-1.2047785520553589,-2.5542707443237305
2024-12-04 22:02:24.509231000,3.403231201171875,-0.5921257734298706,-1.4164913892745972,-2.727846384048462
2024-12-04 22:02:24.519257000,3.413257080078125,-0.3342745006084442,-1.667118787765503,-2.45698356628418
2024-12-04 22:02:24.529284000,3.4232841796875,0.0540460832417011,-1.9293948411941528,-1.7831673622131348
2024-12-04 22:02:24.539310000,3.43331005859375,0.44781494140625,-1.999162077903748,-0.9489351511001588
2024-12-04 22:02:24.549336000,3.443336181640625,0.7329018115997314,-1.7112467288970947,-0.2081238776445388
2024-12-04 22:02:24.559363000,3.453363037109375,0.9009965658187866,-1.238558053970337,0.2630447149276733
2024-12-04 22:02:24.569389000,3.46338916015625,0.9717535972595216,-0.7146886587142944,0.483002632856369
2024-12-04 22:02:24.579416000,3.473416015625,0.9423065185546876,-0.2906982898712158,0.5429235100746155
2024-12-04 22:02:24.589442000,3.483442138671875,0.866948664188385,-0.1188207268714904,0.478013813495636
2024-12-04 22:02:24.599469000,3.493468994140625,0.7561124563217163,-0.1484643667936325,0.3894138932228088
2024-12-04 22:02:24.609495000,3.5034951171875,0.5955275893211365,-0.2112628817558288,0.3929080069065094
2024-12-04 22:02:24.619522000,3.51352197265625,0.425445556640625,-0.2303060740232467,0.5195868611335754
2024-12-04 22:02:24.629548000,3.523548095703125,0.2421279847621917,-0.262033462524414,0.6368676424026489
2024-12-04 22:02:24.639574000,3.533573974609375,-0.0239007677882909,-0.409449815750122,0.6486822366714478
2024-12-04 22:02:24.649601300,3.543601318359375,-0.4435597956180572,-0.7318292260169983,0.6865562200546265
2024-12-04 22:02:24.659627300,3.553627197265625,-0.9120377898216248,-1.0474038124084473,1.085726976394653
2024-12-04 22:02:24.669654000,3.563654052734375,-1.21013081073761,-1.293635010719299,1.890432476997376
2024-12-04 22:02:24.679680000,3.573679931640625,-1.3500977754592896,-1.107314944267273,2.8578622341156006
2024-12-04 22:02:24.689707000,3.58370703125,-1.388010025024414,-0.5765094757080078,3.6849477291107178
2024-12-04 22:02:24.699733000,3.59373291015625,-1.3544901609420776,0.0909473970532417,4.247851371765137
2024-12-04 22:02:24.709760300,3.60376025390625,-1.3034565448760986,0.8581836819648743,4.448363304138184
2024-12-04 22:02:24.719786200,3.6137861328125,-1.25567626953125,1.6813503503799438,4.242636203765869
2024-12-04 22:02:24.729812200,3.623812255859375,-1.1735941171646118,2.4008498191833496,3.655973196029663
2024-12-04 22:02:24.739839000,3.6338388671875,-1.050615668296814,2.6307148933410645,2.967916488647461
2024-12-04 22:02:24.749865000,3.643864990234375,-0.9250466227531432,2.1644880771636963,2.4349701404571533
2024-12-04 22:02:24.759892200,3.653892333984375,-0.8663290143013,1.116133451461792,2.1719985008239746
2024-12-04 22:02:24.769918200,3.663918212890625,-0.8242007493972778,-0.2691186070442199,2.152120351791382
2024-12-04 22:02:24.779945200,3.6739453125,-0.8099648356437683,-1.875572204589844,2.2370049953460693
2024-12-04 22:02:24.789971200,3.68397119140625,-0.8471150994300842,-3.526672601699829,2.3122596740722656
2024-12-04 22:02:24.799998000,3.693998046875,-0.9349533915519714,-4.707980155944824,2.2648751735687256
2024-12-04 22:02:24.810024000,3.70402392578125,-1.0798858404159546,-4.998336791992188,1.9985679388046265
2024-12-04 22:02:24.820050200,3.71405029296875,-1.2288603782653809,-4.384110927581787,1.5720881223678589
2024-12-04 22:02:24.830077200,3.7240771484375,-1.4054527282714844,-3.38706636428833,1.190854787826538
2024-12-04 22:02:24.840103200,3.734103271484375,-1.5446428060531616,-2.520195722579956,0.9726947546005248
2024-12-04 22:02:24.850130200,3.744130126953125,-1.6332658529281616,-2.057959794998169,0.8392444252967834
2024-12-04 22:02:24.860156200,3.75415625,-1.7386045455932615,-1.586925983428955,0.6980431079864502
2024-12-04 22:02:24.870183200,3.76418310546875,-1.8396376371383667,-0.7288469076156616,0.6124065518379211
2024-12-04 22:02:24.880209200,3.774209228515625,-1.9380043745040887,0.2802535891532898,0.6517387628555298
2024-12-04 22:02:24.890236200,3.784236083984375,-1.969154596328736,1.2543762922286987,0.6789959669113159
2024-12-04 22:02:24.900262100,3.79426220703125,-1.9997292757034304,2.410646677017212,0.7317593097686768
2024-12-04 22:02:24.910288100,3.8042880859375,-2.109412670135498,3.355714797973633,1.0562745332717896
2024-12-04 22:02:24.920315100,3.814315185546875,-2.176920413970948,3.756893396377564,1.5855472087860107
2024-12-04 22:02:24.930341000,3.824341064453125,-2.09383487701416,3.67133378982544,2.1558218002319336
2024-12-04 22:02:24.940368100,3.8343681640625,-1.8946763277053835,3.4288763999938965,2.6575348377227783
2024-12-04 22:02:24.950394000,3.84439404296875,-1.695257306098938,3.2114264965057373,2.9607467651367188
2024-12-04 22:02:24.960421000,3.854421142578125,-1.515899896621704,3.129704475402832,3.032294273376465
2024-12-04 22:02:24.970447000,3.864447021484375,-1.3924435377120972,3.1320834159851074,2.8635413646698
2024-12-04 22:02:24.980474000,3.87447412109375,-1.2926461696624756,3.078319787979126,2.4493536949157715
2024-12-04 22:02:24.990500000,3.8845,-1.1926844120025637,2.755902051925659,1.80886709690094
2024-12-04 22:02:25.000526000,3.894526123046875,-1.121968388557434,2.2615344524383545,1.0584056377410889
2024-12-04 22:02:25.010553000,3.904552978515625,-1.0159486532211304,1.8338806629180908,0.369072675704956
2024-12-04 22:02:25.020579000,3.9145791015625,-0.8588813543319702,1.538211226463318,-0.2213469594717025
2024-12-04 22:02:25.030606000,3.924606201171875,-0.6495825052261353,1.4372363090515137,-0.7597724795341492
2024-12-04 22:02:25.040632300,3.93463232421875,-0.3320594429969787,1.4285330772399902,-1.2712302207946775
2024-12-04 22:02:25.050659000,3.9446591796875,0.0432062894105911,1.3268059492111206,-1.783223032951355
2024-12-04 22:02:25.060685000,3.95468505859375,0.3121415972709656,1.1185067892074585,-2.248873949050904
2024-12-04 22:02:25.070712000,3.964712158203125,0.5303367972373962,0.961297333240509,-2.5585310459136963
2024-12-04 22:02:25.080738000,3.974738037109375,0.6567208170890808,0.7828442454338074,-2.6146061420440674
2024-12-04 22:02:25.090764000,3.984763916015625,0.6480931043624878,0.5925531983375549,-2.380941867828369
2024-12-04 22:02:25.100791300,3.994791259765625,0.4076599478721618,0.3575417399406433,-1.4127455949783323
2024-12-04 22:02:25.110817300,4.0048173828125,0.1859602928161621,0.7312368154525757,0.191406637430191
2024-12-04 22:02:25.120844000,4.014843994140625,0.3793334662914276,1.22338604927063,0.9267016649246216
2024-12-04 22:02:25.130870000,4.0248701171875,0.680108904838562,0.7536152601242065,0.1880251169204712
2024-12-04 22:02:25.140897000,4.03489697265625,0.4590124785900116,-0.7332289218902588,-0.8836298584938049
2024-12-04 22:02:25.150923300,4.04492333984375,-0.0618409141898155,-2.810323715209961,-1.440754771232605
2024-12-04 22:02:25.160950300,4.0549501953125,-0.1388454139232635,-4.436618804931641,-1.4433878660202026
2024-12-04 22:02:25.170976300,4.064976318359375,0.4123568534851074,-4.361141681671143,-1.1148643493652344
2024-12-04 22:02:25.181002200,4.075002197265625,0.8206743001937866,-1.726536989212036,-0.5235406160354614
2024-12-04 22:02:25.191029000,4.085029052734375,0.3412040174007416,1.177628993988037,0.2970116138458252
2024-12-04 22:02:25.201055000,4.095054931640625,-0.2442482709884643,1.5110011100769043,0.1763717830181121
2024-12-04 22:02:25.211082200,4.105082275390625,-0.4354301989078522,0.4615069031715393,-0.4715699255466461
2024-12-04 22:02:25.221108200,4.115108154296875,-0.2616123557090759,-0.599827766418457,-1.1948038339614868
2024-12-04 22:02:25.231135200,4.12513525390625,0.1275651752948761,-1.5077052116394043,-1.8150285482406616
2024-12-04 22:02:25.241161200,4.1351611328125,0.6096359491348267,-2.190485954284668,-2.2611067295074463
2024-12-04 22:02:25.251188000,4.14518798828125,1.2584514617919922,-2.690632104873657,-2.517115354537964
2024-12-04 22:02:25.261214000,4.1552138671875,2.041964769363404,-3.1319003105163574,-2.6345291137695312
2024-12-04 22:02:25.271240200,4.165240234375,2.772944688796997,-3.619127750396729,-2.6877312660217285
2024-12-04 22:02:25.281267200,4.17526708984375,3.320188045501709,-4.2221856117248535,-2.660560607910156
2024-12-04 22:02:25.291293200,4.185293212890625,3.5402424335479736,-4.842235088348389,-2.459362268447876
2024-12-04 22:02:25.301320200,4.1953203125,3.280325174331665,-5.179286956787109,-2.0617458820343018
2024-12-04 22:02:25.311346200,4.20534619140625,2.561274528503418,-4.879360198974609,-1.588819146156311
2024-12-04 22:02:25.321373200,4.215373291015625,1.8814966678619385,-3.817459583282471,-1.274938702583313
2024-12-04 22:02:25.331399200,4.225399169921875,1.588950514793396,-2.564349889755249,-1.2796458005905151
2024-12-04 22:02:25.341426200,4.23542626953125,1.639667510986328,-1.1752477884292605,-1.4606139659881592
2024-12-04 22:02:25.351452200,4.2454521484375,1.7232452630996704,0.0917995050549507,-1.5609980821609497
2024-12-04 22:02:25.361478100,4.25547802734375,1.6763224601745603,1.0748555660247805,-1.4754374027252195
2024-12-04 22:02:25.371505000,4.2655048828125,1.5260286331176758,1.87904155254364,-1.2712030410766602
2024-12-04 22:02:25.381531100,4.27553125,1.3835058212280271,2.4718539714813232,-1.0861165523529053
2024-12-04 22:02:25.391558100,4.28555810546875,1.3280802965164185,2.74198579788208,-1.052454948425293
2024-12-04 22:02:25.401584000,4.295584228515625,1.3456860780715942,2.5049972534179688,-1.1817306280136108
2024-12-04 22:02:25.411611100,4.305611083984375,1.303080439567566,1.891339659690857,-1.284791350364685
2024-12-04 22:02:25.421637000,4.31563720703125,1.143521428108215,1.216789484024048,-1.283287763595581
2024-12-04 22:02:25.431664000,4.3256640625,0.8984019160270691,0.724461555480957,-1.1813184022903442
2024-12-04 22:02:25.441690000,4.335690185546875,0.5788660049438477,0.5371305346488953,-0.9918075203895568
2024-12-04 22:02:25.451716000,4.345716064453125,0.2331184446811676,0.5233824253082275,-0.7456586956977844
2024-12-04 22:02:25.461743000,4.3557431640625,-0.0558720678091049,0.5971291065216064,-0.5343139171600342
2024-12-04 22:02:25.471769000,4.36576904296875,-0.2287980914115905,0.6404932141304016,-0.4581944942474365
2024-12-04 22:02:25.481796000,4.375796142578125,-0.3075269758701324,0.6352058053016663,-0.5359465479850769
2024-12-04 22:02:25.491822300,4.385822265625,-0.4088219106197357,0.7811182737350464,-0.6781790256500244
2024-12-04 22:02:25.501849000,4.39584912109375,-0.5514647960662842,1.0765269994735718,-0.8317393064498901
2024-12-04 22:02:25.511875000,4.405875,-0.6338233351707458,1.3356860876083374,-0.9642561674118042
2024-12-04 22:02:25.521902000,4.415902099609375,-0.552519679069519,1.4450770616531372,-1.066998839378357
2024-12-04 22:02:25.531928000,4.425927978515625,-0.3304092586040497,1.3945860862731934,-1.1315457820892334
2024-12-04 22:02:25.541954000,4.4359541015625,-0.0672790929675102,1.2014522552490234,-1.1893656253814695
2024-12-04 22:02:25.551981300,4.445981201171875,0.1468237787485122,0.8961798548698425,-1.24994695186615
2024-12-04 22:02:25.562007300,4.45600732421875,0.3145685791969299,0.5554488897323608,-1.3149421215057373
2024-12-04 22:02:25.572034000,4.466033935546875,0.3824994266033172,0.1672157794237136,-1.3968312740325928
2024-12-04 22:02:25.582060000,4.47606005859375,0.2966353893280029,-0.2598164975643158,-1.5338037014007568
2024-12-04 22:02:25.592087000,4.486087158203125,0.1584996283054351,-0.6976480484008789,-1.769578456878662
2024-12-04 22:02:25.602113300,4.49611328125,0.1367080509662628,-1.1512539386749268,-2.013993740081787
2024-12-04 22:02:25.612140300,4.506140380859375,0.2542491257190704,-1.570047378540039,-2.120282888412476
2024-12-04 22:02:25.622166300,4.516166259765625,0.4659208953380584,-1.9849708080291748,-2.061162233352661
2024-12-04 22:02:25.632191500,4.52619140625,0.6862761974334717,-2.4113476276397705,-1.8285657167434688
2024-12-04 22:02:25.642218200,4.53621826171875,0.8066414594650269,-2.714533805847168,-1.40447998046875
2024-12-04 22:02:25.652244200,4.546244140625,0.7362933158874512,-2.726851463317871,-0.8979836702346802
2024-12-04 22:02:25.662271500,4.556271484375,0.5017833709716797,-2.3809776306152344,-0.4066618382930755
2024-12-04 22:02:25.672297500,4.56629736328125,0.2292547076940536,-1.7814276218414309,0.0360448472201824
2024-12-04 22:02:25.682324500,4.576324462890625,-0.0307094976305961,-1.0968098640441897,0.3805398941040039
2024-12-04 22:02:25.692350500,4.5863505859375,-0.2528866827487945,-0.3822696506977081,0.726064920425415
2024-12-04 22:02:25.702377200,4.596377197265625,-0.399000734090805,0.2915724217891693,1.106977939605713
2024-12-04 22:02:25.712403500,4.606403564453125,-0.6052595376968384,0.6975249648094177,1.3114078044891355
2024-12-04 22:02:25.722429400,4.616429443359375,-0.9597476124763488,0.7590501308441162,1.2592034339904783
2024-12-04 22:02:25.732456400,4.62645654296875,-1.4032821655273438,0.6736977696418762,1.2899932861328125
2024-12-04 22:02:25.742482400,4.636482421875,-1.6637084484100342,0.4278563559055328,1.7053534984588623
2024-12-04 22:02:25.752509400,4.646509521484375,-1.709222674369812,0.1299597173929214,2.4507358074188232
2024-12-04 22:02:25.762535400,4.656535400390625,-1.676259994506836,-0.170203298330307,3.343575954437256
2024-12-04 22:02:25.772562400,4.6665625,-1.627376914024353,-0.315628170967102,4.11846399307251
2024-12-04 22:02:25.782588400,4.67658837890625,-1.5762492418289185,-0.0364777781069278,4.510226726531982
2024-12-04 22:02:25.792615400,4.686615478515625,-1.4897106885910034,0.7338738441467285,4.418358325958252
2024-12-04 22:02:25.802641400,4.696641357421875,-1.297263741493225,1.3831030130386353,4.093967914581299
2024-12-04 22:02:25.812667400,4.70666748046875,-1.0529481172561646,1.7497113943099976,3.661922454833984
2024-12-04 22:02:25.822694700,4.716694580078125,-0.8718944191932678,1.774573802947998,3.286947011947632
2024-12-04 22:02:25.832720600,4.726720703125,-0.7786903381347656,1.4365822076797483,3.061433792114258
2024-12-04 22:02:25.842747400,4.736747314453125,-0.7252862453460693,0.8861655592918396,2.916756391525269
2024-12-04 22:02:25.852773400,4.7467734375,-0.6953404545783997,0.1390057653188705,2.7957613468170166
2024-12-04 22:02:25.862800400,4.75680029296875,-0.707791805267334,-0.8778919577598572,2.655982494354248
2024-12-04 22:02:25.872826400,4.766826416015625,-0.7763407230377197,-2.073366641998291,2.4701907634735107
2024-12-04 22:02:25.882853600,4.776853515625,-0.93971049785614,-3.038403987884521,2.284883499145508
2024-12-04 22:02:25.892879400,4.78687939453125,-1.1164168119430542,-3.423285961151123,2.1941442489624023
2024-12-04 22:02:25.902905300,4.7969052734375,-1.2504878044128418,-3.245466709136963,2.164272785186768
2024-12-04 22:02:25.912932400,4.806932373046875,-1.2823058366775513,-2.8290274143218994,2.080830335617065
2024-12-04 22:02:25.922958300,4.816958251953125,-1.259342908859253,-2.316594123840332,1.9170154333114624
2024-12-04 22:02:25.932985600,4.826985595703125,-1.2604697942733765,-1.7213332653045654,1.7325268983840942
2024-12-04 22:02:25.943011600,4.837011474609375,-1.2948801517486572,-1.0438157320022583,1.530604124069214
2024-12-04 22:02:25.953038300,4.847038330078125,-1.4545674324035645,-0.1329998075962066,1.3882218599319458
2024-12-04 22:02:25.963064300,4.857064208984375,-1.6449766159057615,0.9512039422988892,1.221635341644287
2024-12-04 22:02:25.973091300,4.86709130859375,-1.7924381494522097,2.083055257797241,1.0549935102462769
2024-12-04 22:02:25.983117300,4.877117431640625,-1.936753749847412,3.066927194595337,1.0458050966262815
2024-12-04 22:02:25.993143300,4.887143310546875,-2.0413668155670166,3.722791194915772,1.3484362363815308
2024-12-04 22:02:26.003170600,4.897170654296875,-2.0636298656463623,3.909972667694092,2.0980589389801025
2024-12-04 22:02:26.013196500,4.907196533203125,-1.9611104726791384,3.609246492385864,2.705121755599976
2024-12-04 22:02:26.023223300,4.917223388671875,-1.7799726724624634,2.9625048637390137,2.892756223678589
2024-12-04 22:02:26.033249300,4.927249267578125,-1.6383612155914309,2.212555408477783,2.6464061737060547
2024-12-04 22:02:26.043276300,4.9372763671875,-1.5363264083862305,1.6108741760253906,2.054638624191284
2024-12-04 22:02:26.053302500,4.947302490234375,-1.4552195072174072,1.312535047531128,1.2979854345321655
2024-12-04 22:02:26.063329500,4.95732958984375,-1.3815759420394895,1.3328053951263428,0.5739008188247681
2024-12-04 22:02:26.073355500,4.96735546875,-1.3016130924224854,1.5230298042297363,-0.0314026735723018
2024-12-04 22:02:26.083381500,4.977381591796875,-1.1435002088546753,1.7311923503875732,-0.4974324405193329
2024-12-04 22:02:26.093408300,4.987408203125,-0.7835007905960083,1.789093017578125,-0.8629980087280273
2024-12-04 22:02:26.103434200,4.997434326171875,-0.305588811635971,1.7455239295959473,-1.2283391952514648
2024-12-04 22:02:26.113461500,5.00746142578125,-0.0231535397469997,1.556349754333496,-1.719038963317871
2024-12-04 22:02:26.123487500,5.017487548828125,0.0770915746688842,1.260927438735962,-2.288119316101074
2024-12-04 22:02:26.133514500,5.027514404296875,0.1541397124528885,0.8596334457397461,-2.856628894805908
2024-12-04 22:02:26.143540500,5.03754052734375,0.3409583270549774,0.5176560878753662,-3.3467588424682617
2024-12-04 22:02:26.153567200,5.047567138671875,0.623633623123169,0.3057558834552765,-3.5044987201690674
2024-12-04 22:02:26.163593500,5.057593505859375,0.7565178871154785,-0.0211080163717269,-2.674521207809448
2024-12-04 22:02:26.173619500,5.067619384765625,0.7186864614486694,-0.3468540906906128,-0.8977036476135254
2024-12-04 22:02:26.183646500,5.077646484375,1.1105178594589231,-0.8025888800621033,-0.239353746175766
2024-12-04 22:02:26.193672400,5.08767236328125,1.556789755821228,-1.0457699298858645,-0.7411062121391296
2024-12-04 22:02:26.203699500,5.097699462890625,1.1605795621871948,-1.2427051067352295,-1.3362969160079956
2024-12-04 22:02:26.213725400,5.107725341796875,0.1761288344860077,-1.7374831438064575,-1.5129011869430542
2024-12-04 22:02:26.223752400,5.11775244140625,-0.4527939856052398,-2.5162220001220703,-1.19194495677948
2024-12-04 22:02:26.233778400,5.1277783203125,-0.5527881383895874,-2.7721188068389893,-0.5738300681114197
2024-12-04 22:02:26.243805400,5.137805419921875,-0.3381395041942596,-1.7854280471801758,-0.1322696954011917
2024-12-04 22:02:26.253831400,5.14783154296875,-0.0654423087835311,0.2563425898551941,-0.2906078696250915
2024-12-04 22:02:26.263857400,5.157857421875,0.0235757157206535,1.642566442489624,-0.8747578859329224
2024-12-04 22:02:26.273884400,5.167884521484375,0.0873288363218307,0.7818750739097595,-1.312908411026001
2024-12-04 22:02:26.283910400,5.177910400390625,0.271765798330307,-1.1647377014160156,-1.4885979890823364
2024-12-04 22:02:26.293937400,5.1879375,0.5923891663551331,-2.468513250350952,-1.6036953926086426
2024-12-04 22:02:26.303963400,5.19796337890625,1.0041378736495972,-2.7615268230438232,-1.7689807415008545
2024-12-04 22:02:26.313990400,5.207990478515625,1.4535720348358154,-2.6078667640686035,-1.8942077159881592
2024-12-04 22:02:26.324016400,5.218016357421875,1.891846299171448,-2.4352352619171143,-1.9046710729599
2024-12-04 22:02:26.334043400,5.22804345703125,2.286325216293335,-2.41430401802063,-1.8017176389694207
2024-12-04 22:02:26.344069400,5.2380693359375,2.55420994758606,-2.678058385848999,-1.6234663724899292
2024-12-04 22:02:26.354095400,5.248095458984375,2.6101388931274414,-3.0011098384857178,-1.4172757863998413
2024-12-04 22:02:26.364122400,5.258122314453125,2.397932529449463,-3.0195720195770264,-1.2279452085494995
2024-12-04 22:02:26.374148400,5.2681484375,1.947123408317566,-2.568779468536377,-1.0914188623428345
2024-12-04 22:02:26.384175600,5.278175537109375,1.4608445167541504,-1.5267807245254517,-1.212535738945007
2024-12-04 22:02:26.394201600,5.28820166015625,1.1809545755386353,-0.4614098668098449,-1.4123746156692505
2024-12-04 22:02:26.404228400,5.298228271484375,1.1109522581100464,0.2211926877498626,-1.425479769706726
2024-12-04 22:02:26.414254300,5.30825439453125,1.1172178983688354,0.5834426283836365,-1.228249430656433
2024-12-04 22:02:26.424281300,5.31828125,1.1163246631622314,0.8050011396408081,-0.959754765033722
2024-12-04 22:02:26.434307300,5.328307373046875,1.1010242700576782,0.9932164549827576,-0.7449268698692322
2024-12-04 22:02:26.444333300,5.338333251953125,1.0674223899841309,1.1448991298675537,-0.6402832865715027
2024-12-04 22:02:26.454360600,5.348360595703125,1.022415280342102,1.2305376529693604,-0.6362558007240295
2024-12-04 22:02:26.464386600,5.358386474609375,0.973202347755432,1.2515811920166016,-0.6638489365577698
2024-12-04 22:02:26.474413300,5.368413330078125,0.8992646336555481,1.280373454093933,-0.6537308692932129
2024-12-04 22:02:26.484439300,5.378439208984375,0.810279905796051,1.3696149587631226,-0.5994617938995361
2024-12-04 22:02:26.494466600,5.388466552734375,0.6985718011856079,1.4479910135269165,-0.5790017247200012
2024-12-04 22:02:26.504492500,5.398492431640625,0.6064448356628418,1.5243099927902222,-0.6119972467422485
2024-12-04 22:02:26.514519600,5.40851953125,0.5429937243461609,1.699178695678711,-0.6981931924819946
2024-12-04 22:02:26.524545500,5.418545654296875,0.4927643835544586,1.8695334196090696,-0.8250827193260193
2024-12-04 22:02:26.534571500,5.428571533203125,0.4530511498451233,1.9327290058135984,-1.0021930932998655
2024-12-04 22:02:26.544598300,5.438598388671875,0.3989338278770447,1.9271315336227417,-1.184104084968567
2024-12-04 22:02:26.554624300,5.448624267578125,0.2946117222309112,1.7996398210525513,-1.2945868968963623
2024-12-04 22:02:26.564651500,5.458651611328125,0.160861387848854,1.5739389657974243,-1.3083810806274414
2024-12-04 22:02:26.574677500,5.468677490234375,0.0295287054032087,1.332829833030701,-1.2701623439788818
2024-12-04 22:02:26.584704500,5.47870458984375,-0.0655544027686119,1.1361719369888306,-1.2578403949737549
2024-12-04 22:02:26.594730500,5.48873046875,-0.0701938942074775,0.8790138363838196,-1.2511001825332642
2024-12-04 22:02:26.604757200,5.49875732421875,0.0096977427601814,0.5608755350112915,-1.2407711744308472
2024-12-04 22:02:26.614783500,5.508783447265625,0.108648844063282,0.2194935232400894,-1.2546768188476562
2024-12-04 22:02:26.624809500,5.5188095703125,0.2241876870393753,-0.0333022475242614,-1.321956992149353
2024-12-04 22:02:26.634837000,5.5288369140625,0.2898020446300506,-0.1935338526964187,-1.4416751861572266
2024-12-04 22:02:26.644863000,5.538863037109375,0.2499177604913711,-0.2913581728935241,-1.6095243692398071
2024-12-04 22:02:26.654889700,5.5488896484375,0.1590788811445236,-0.3890714347362518,-1.822149515151977
2024-12-04 22:02:26.664915700,5.558915771484375,0.0790926963090896,-0.506109356880188,-2.06117844581604
2024-12-04 22:02:26.674942700,5.568942626953125,0.0313608348369598,-0.666610598564148,-2.266404628753662
2024-12-04 22:02:26.684968700,5.57896875,0.0305499024689197,-0.9146158695220948,-2.350961685180664
2024-12-04 22:02:26.694994700,5.58899462890625,0.0855158492922782,-1.2631124258041382,-2.2628495693206787
2024-12-04 22:02:26.705022000,5.59902197265625,0.1780135482549667,-1.6869879961013794,-1.993505835533142
2024-12-04 22:02:26.715048000,5.6090478515625,0.2903788089752197,-2.096137285232544,-1.5343899726867676
2024-12-04 22:02:26.725074700,5.61907470703125,0.4176012277603149,-2.318828582763672,-0.8871117830276489
2024-12-04 22:02:26.735100700,5.6291005859375,0.5227935314178467,-2.1970856189727783,-0.2059939801692962
2024-12-04 22:02:26.745128000,5.6391279296875,0.5825519561767578,-1.806490898132324,0.3429959118366241
2024-12-04 22:02:26.755154000,5.64915380859375,0.5932466387748718,-1.2464381456375122,0.7053598761558533
2024-12-04 22:02:26.765181000,5.659180908203125,0.5735781788825989,-0.5927202105522156,0.913688600063324
2024-12-04 22:02:26.775207000,5.66920703125,0.4940186142921448,0.0361639857292175,0.9996123313903807
2024-12-04 22:02:26.785233700,5.679233642578125,0.3692290186882019,0.5986605882644653,0.959501087665558
2024-12-04 22:02:26.795259600,5.689259765625,0.1678283661603927,0.840980052947998,0.7749162316322327
2024-12-04 22:02:26.805285600,5.69928564453125,-0.1265124380588531,0.7270439267158508,0.5814639329910278
2024-12-04 22:02:26.815313000,5.70931298828125,-0.5339280366897583,0.3797238767147064,0.6084863543510437
2024-12-04 22:02:26.825339000,5.7193388671875,-0.959470808506012,-0.0250840708613395,1.0131016969680786
2024-12-04 22:02:26.835366000,5.729365966796875,-1.2440271377563477,-0.484140545129776,1.724435329437256
2024-12-04 22:02:26.845392000,5.739391845703125,-1.4165008068084717,-0.6849556565284729,2.5014986991882324
2024-12-04 22:02:26.855419000,5.7494189453125,-1.5273118019104004,-0.5168972015380859,3.1721792221069336
2024-12-04 22:02:26.865444900,5.75944482421875,-1.5778061151504517,-0.1179418414831161,3.696045398712158
2024-12-04 22:02:26.875470800,5.769470947265625,-1.599281907081604,0.41502845287323,4.001387596130371
2024-12-04 22:02:26.885497900,5.779497802734375,-1.6105250120162964,1.075604796409607,4.050075531005859
2024-12-04 22:02:26.895523800,5.78952392578125,-1.569429636001587,1.9047924280166624,3.767467498779297
2024-12-04 22:02:26.905550600,5.799550537109375,-1.4613699913024902,2.5291876792907715,3.307187557220459
2024-12-04 22:02:26.915576600,5.80957666015625,-1.2909438610076904,2.62157940864563,2.899442195892334
2024-12-04 22:02:26.925603800,5.819603759765625,-1.147379994392395,2.110704183578491,2.717874526977539
2024-12-04 22:02:26.935629800,5.8296298828125,-1.0485070943832395,1.1805981397628784,2.739643812179565
2024-12-04 22:02:26.945656800,5.83965673828125,-0.9705358147621156,0.0144824311137199,2.8067965507507324
2024-12-04 22:02:26.955682800,5.849682861328125,-0.9157949686050416,-1.3554362058639526,2.7797701358795166
2024-12-04 22:02:26.965708800,5.859708740234375,-0.9153352975845336,-2.674282550811768,2.600939989089966
2024-12-04 22:02:26.975735800,5.86973583984375,-0.9746503233909608,-3.1662585735321045,2.2855825424194336
2024-12-04 22:02:26.985761800,5.87976171875,-1.09636127948761,-2.731224536895752,1.9072895050048828
2024-12-04 22:02:26.995788800,5.889788818359375,-1.206128716468811,-2.162343263626098,1.6754794120788574
2024-12-04 22:02:27.005814800,5.899814697265625,-1.3045732975006104,-1.870898723602295,1.663793683052063
2024-12-04 22:02:27.015841800,5.909841796875,-1.3999534845352173,-1.8045812845230105,1.7771110534667969
2024-12-04 22:02:27.025867800,5.91986767578125,-1.458538293838501,-1.8573908805847168,1.9076075553894043
2024-12-04 22:02:27.035894800,5.929894775390625,-1.4936463832855225,-1.611633539199829,1.9392727613449097
2024-12-04 22:02:27.045920800,5.939920654296875,-1.49442458152771,-0.9981259107589722,1.900490999221801
2024-12-04 22:02:27.055946800,5.94994677734375,-1.5153050422668457,-0.3061493337154388,1.6812227964401243
2024-12-04 22:02:27.065973800,5.959973876953125,-1.5924842357635498,0.4859509468078613,1.4055122137069702
2024-12-04 22:02:27.075999700,5.969999755859375,-1.6723127365112305,1.3844531774520874,1.2440074682235718
2024-12-04 22:02:27.086027000,5.980027099609375,-1.7798160314559937,2.272589683532715,1.2807114124298096
2024-12-04 22:02:27.096053000,5.990052978515625,-1.8704675436019893,2.8812379837036133,1.604679822921753
2024-12-04 22:02:27.106079700,6.000079833984375,-1.878592014312744,3.0353028774261475,2.036094903945923
2024-12-04 22:02:27.116105700,6.010105712890625,-1.7679331302642822,2.807870864868164,2.332072496414185
2024-12-04 22:02:27.126132700,6.0201328125,-1.5774673223495483,2.4629509449005127,2.366448879241944
2024-12-04 22:02:27.136158700,6.03015869140625,-1.4572649002075195,2.141129732131958,2.1117162704467773
2024-12-04 22:02:27.146184700,6.040184814453125,-1.429226636886597,1.817732095718384,1.6357238292694092
2024-12-04 22:02:27.156212000,6.0502119140625,-1.4051880836486816,1.6068049669265747,1.0736191272735596
2024-12-04 22:02:27.166238000,6.060238037109375,-1.296087622642517,1.491641640663147,0.501768171787262
2024-12-04 22:02:27.176264700,6.0702646484375,-1.033293604850769,1.4747456312179563,-0.0130563266575336
2024-12-04 22:02:27.186290700,6.080290771484375,-0.6550979614257812,1.633021354675293,-0.4475939571857452
2024-12-04 22:02:27.196318000,6.09031787109375,-0.1808734238147735,1.906190037727356,-0.8422627449035645
2024-12-04 22:02:27.206344000,6.100343994140625,0.2927769422531128,1.9823590517044067,-1.3031551837921145
2024-12-04 22:02:27.216371000,6.110370849609375,0.5755131244659424,1.6475005149841309,-1.8324400186538696
2024-12-04 22:02:27.226396700,6.120396728515625,0.6861341595649719,1.2436776161193848,-2.314016342163086
2024-12-04 22:02:27.236422700,6.130422607421875,0.7350010275840759,0.9598609805107116,-2.719287633895874
2024-12-04 22:02:27.246449700,6.14044970703125,0.8504916429519653,0.7976510524749756,-2.998110294342041
2024-12-04 22:02:27.256475600,6.1504755859375,0.971275508403778,0.7570085525512695,-2.9908478260040283
2024-12-04 22:02:27.266503000,6.1605029296875,0.8164126873016357,0.5800217986106873,-1.741427302360535
2024-12-04 22:02:27.276529000,6.17052880859375,0.6500420570373535,0.4433844983577728,0.008698352612555
2024-12-04 22:02:27.286555600,6.1805556640625,0.9637536406517028,-0.3344255089759826,-0.1628401130437851
2024-12-04 22:02:27.296581600,6.19058154296875,1.0878010988235474,-1.7964086532592771,-1.2665505409240725
2024-12-04 22:02:27.306609000,6.20060888671875,0.6860080361366272,-3.606891870498657,-2.2018468379974365
2024-12-04 22:02:27.316635000,6.210634765625,0.2321895360946655,-4.689470291137695,-2.7291386127471924
2024-12-04 22:02:27.326660900,6.220660888671875,0.1045940220355987,-4.486594676971436,-2.63962197303772
2024-12-04 22:02:27.336687900,6.23068798828125,-0.0215946920216083,-3.1456286907196045,-0.9179356694221495
2024-12-04 22:02:27.346713900,6.2407138671875,-0.4043766856193542,-0.4239794909954071,0.9559994339942932
2024-12-04 22:02:27.356740600,6.25074072265625,-0.7284362316131592,1.978028416633606,1.312282681465149
2024-12-04 22:02:27.366766600,6.2607666015625,-0.8027392029762268,2.429553747177124,0.869735062122345
2024-12-04 22:02:27.376793900,6.2707939453125,-0.7209800481796265,1.592513084411621,0.2276289910078048
2024-12-04 22:02:27.386819800,6.28081982421875,-0.4172787368297577,0.4974688291549682,-0.4958125948905945
2024-12-04 22:02:27.396846800,6.290846923828125,0.0616318956017494,-0.4861720502376556,-1.2066251039505005
2024-12-04 22:02:27.406872800,6.300872802734375,0.7124913930892944,-1.239556908607483,-1.6489266157150269
2024-12-04 22:02:27.416898800,6.31089892578125,1.3968156576156616,-1.6889681816101074,-1.9029347896575928
2024-12-04 22:02:27.426925800,6.32092578125,2.0247607231140137,-2.0507397651672363,-2.135384559631348
2024-12-04 22:02:27.436951800,6.330951904296875,2.644697427749634,-2.604214906692505,-2.2154366970062256
2024-12-04 22:02:27.446978800,6.340978759765625,3.074617862701416,-3.31416916847229,-2.0991909503936768
2024-12-04 22:02:27.457004800,6.3510048828125,3.1542203426361084,-3.892043113708496,-1.8342539072036743
2024-12-04 22:02:27.467031800,6.36103173828125,2.8790283203125,-4.011167526245117,-1.5677114725112915
2024-12-04 22:02:27.477057800,6.371057861328125,2.424661159515381,-3.3531172275543213,-1.5075552463531494
2024-12-04 22:02:27.487084800,6.381084716796875,1.9726163148880005,-2.2747271060943604,-1.6334985494613647
2024-12-04 22:02:27.497110800,6.39111083984375,1.6549068689346311,-1.254886031150818,-1.6340678930282593
2024-12-04 22:02:27.507136800,6.40113671875,1.408363938331604,-0.3589017391204834,-1.3669549226760864
2024-12-04 22:02:27.517163800,6.411163818359375,1.1990292072296145,0.4788066446781158,-0.991889238357544
2024-12-04 22:02:27.527189800,6.421189697265625,1.0613213777542114,1.2841241359710691,-0.7050689458847046
2024-12-04 22:02:27.537217000,6.431217041015625,1.0120726823806765,2.020622491836548,-0.6338419914245605
2024-12-04 22:02:27.547242800,6.44124267578125,0.9900548458099364,2.633753538131714,-0.731762170791626
2024-12-04 22:02:27.557269800,6.451269775390625,0.9369999766349792,3.079645156860352,-0.8891511559486389
2024-12-04 22:02:27.567295700,6.461295654296875,0.8386731743812561,3.307324409484864,-1.0475021600723269
2024-12-04 22:02:27.577322800,6.47132275390625,0.7085703611373901,3.327501058578491,-1.1457726955413818
2024-12-04 22:02:27.587348700,6.4813486328125,0.5616570711135864,3.108863115310669,-1.213717341423035
2024-12-04 22:02:27.597375000,6.491375,0.4241583347320556,2.641163825988769,-1.2657907009124756
2024-12-04 22:02:27.607401700,6.501401611328125,0.3094386756420135,2.0264110565185547,-1.2629812955856323
2024-12-04 22:02:27.617427700,6.511427734375,0.1985757946968078,1.4537690877914429,-1.208662986755371
2024-12-04 22:02:27.627454700,6.521454833984375,0.0836345702409744,0.9854066967964172,-1.16547691822052
2024-12-04 22:02:27.637481500,6.5314814453125,-0.0542564243078231,0.6485616564750671,-1.1534812450408936
2024-12-04 22:02:27.647508700,6.5415087890625,-0.2286388874053955,0.4699724316596985,-1.170992136001587
2024-12-04 22:02:27.657534700,6.55153466796875,-0.4020532965660095,0.4158121347427368,-1.1981849670410156
2024-12-04 22:02:27.667561500,6.5615615234375,-0.4704291522502899,0.3397221565246582,-1.184686541557312
2024-12-04 22:02:27.677587500,6.57158740234375,-0.3555795550346374,0.1400415003299713,-1.1166409254074097
2024-12-04 22:02:27.687613400,6.581613525390625,-0.1485526114702224,-0.1934826672077179,-1.065039038658142
2024-12-04 22:02:27.697640700,6.591640625,0.0508598685264587,-0.6532434821128845,-1.065526843070984
2024-12-04 22:02:27.707666700,6.601666748046875,0.1920769065618515,-1.0300456285476685,-1.103046178817749
2024-12-04 22:02:27.717693400,6.611693359375,0.2085468918085098,-1.1759755611419678,-1.2031891345977783
2024-12-04 22:02:27.727719400,6.621719482421875,0.0933044403791427,-0.969980537891388,-1.4447373151779177
2024-12-04 22:02:27.737746400,6.631746337890625,-0.0434986352920532,-0.3996502161026001,-1.949007153511048
2024-12-04 22:02:27.747772400,6.6417724609375,-0.0622574090957641,0.2228045612573623,-2.5988690853118896
2024-12-04 22:02:27.757799700,6.651799560546875,0.025938156992197,0.5431734323501587,-3.047973871231079
2024-12-04 22:02:27.767825700,6.66182568359375,0.2236046195030212,0.35484179854393,-3.02592134475708
2024-12-04 22:02:27.777851600,6.6718515625,0.4957713484764099,-0.2767695486545563,-2.5573441982269287
2024-12-04 22:02:27.787878400,6.68187841796875,0.7126972675323486,-1.1127289533615112,-1.7809597253799438
2024-12-04 22:02:27.797904400,6.691904296875,0.7587064504623413,-1.7713607549667358,-0.9466881155967712
2024-12-04 22:02:27.807931600,6.701931640625,0.6332371830940247,-1.9993380308151243,-0.21513432264328
2024-12-04 22:02:27.817957600,6.71195751953125,0.4556446969509125,-1.8067219257354736,0.3063681125640869
2024-12-04 22:02:27.827984600,6.721984619140625,0.3496364951133728,-1.3276152610778809,0.5956249237060547
2024-12-04 22:02:27.838010600,6.7320107421875,0.3532383143901825,-0.7753090262413025,0.7551470398902893
2024-12-04 22:02:27.848036600,6.74203662109375,0.3793759047985077,-0.2179264426231384,0.9620480537414552
2024-12-04 22:02:27.858063400,6.7520634765625,0.3234162330627441,0.3307828903198242,1.224553465843201
2024-12-04 22:02:27.868089300,6.76208935546875,0.1827097088098526,0.7694012522697449,1.3782967329025269
2024-12-04 22:02:27.878116600,6.77211669921875,-0.050144650042057,0.8955301642417908,1.2762376070022583
2024-12-04 22:02:27.888142600,6.782142578125,-0.421290785074234,0.6352649927139282,0.9937273263931274
2024-12-04 22:02:27.898169600,6.792169677734375,-0.885521411895752,0.1039113700389862,0.9210582971572876
2024-12-04 22:02:27.908195600,6.802195556640625,-1.1910191774368286,-0.4655667543411255,1.332877278327942
2024-12-04 22:02:27.918222600,6.81222265625,-1.3195111751556396,-0.7995662689208984,2.1533799171447754
2024-12-04 22:02:27.928248600,6.82224853515625,-1.3487573862075806,-0.8013923764228821,3.144115686416626
2024-12-04 22:02:27.938274600,6.832274658203125,-1.2909706830978394,-0.5266336798667908,4.0635504722595215
2024-12-04 22:02:27.948301600,6.842301513671875,-1.19774067401886,-0.0198562312871217,4.651832580566406
2024-12-04 22:02:27.958327600,6.85232763671875,-1.0979769229888916,0.6595726609230042,4.742226123809815
2024-12-04 22:02:27.968354600,6.8623544921875,-0.9720795154571532,1.3036730289459229,4.348875045776367
2024-12-04 22:02:27.978380500,6.872380615234375,-0.8381431102752686,1.5903600454330444,3.666223764419556
2024-12-04 22:02:27.988407600,6.882407470703125,-0.8338087797164917,1.3612453937530518,2.981052160263061
2024-12-04 22:02:27.998433500,6.89243359375,-0.9226561784744264,0.4882939755916595,2.593430995941162
2024-12-04 22:02:28.008460500,6.90246044921875,-0.9956813454627992,-0.5541884303092957,2.511776924133301
2024-12-04 22:02:28.018486500,6.912486572265625,-1.0089482069015503,-1.470555067062378,2.5115177631378174
2024-12-04 22:02:28.028512500,6.922512451171875,-0.939840853214264,-1.9533286094665527,2.493103742599488
2024-12-04 22:02:28.038539800,6.932539794921875,-0.7883023023605347,-1.9346784353256223,2.3911194801330566
2024-12-04 22:02:28.048565500,6.9425654296875,-0.6409815549850464,-1.6867767572402954,2.2544705867767334
2024-12-04 22:02:28.058592500,6.952592529296875,-0.5336630344390869,-1.6803948879241943,2.161114454269409
2024-12-04 22:02:28.068618500,6.962618408203125,-0.5241648554801941,-1.9913657903671265,2.109328031539917
2024-12-04 22:02:28.078645500,6.9726455078125,-0.6466394662857056,-2.3173420429229736,2.01606559753418
2024-12-04 22:02:28.088671500,6.98267138671875,-0.8048086166381836,-2.562105655670166,1.833639025688172
2024-12-04 22:02:28.098698500,6.992698486328125,-0.9336511492729188,-2.396489381790161,1.5858923196792605
2024-12-04 22:02:28.108724500,7.002724365234375,-1.0848333835601809,-1.7973681688308716,1.374620795249939
2024-12-04 22:02:28.118750500,7.01275048828125,-1.1611043214797974,-0.8025579452514648,1.194644331932068
2024-12-04 22:02:28.128777500,7.022777587890625,-1.2355868816375732,0.4218596220016479,0.920027196407318
2024-12-04 22:02:28.138803500,7.032803466796875,-1.359817385673523,1.6773138046264648,0.6500555276870728
2024-12-04 22:02:28.148830700,7.042830810546875,-1.5365846157073977,2.589909791946411,0.5382456183433533
2024-12-04 22:02:28.158856700,7.052856689453125,-1.7654104232788086,2.8663971424102783,0.7953407168388367
2024-12-04 22:02:28.168883500,7.062883544921875,-1.9282560348510744,2.585871458053589,1.4425591230392456
2024-12-04 22:02:28.178909400,7.072909423828125,-1.9128929376602173,2.1477177143096924,1.9835463762283323
2024-12-04 22:02:28.188936400,7.0829365234375,-1.7883672714233398,1.855997323989868,2.228153944015503
2024-12-04 22:02:28.198962400,7.09296240234375,-1.7288976907730105,1.80791175365448,2.180509090423584
2024-12-04 22:02:28.208988700,7.10298876953125,-1.7829468250274658,2.0151267051696777,1.9253212213516235
2024-12-04 22:02:28.219015700,7.113015625,-1.8341810703277588,2.3473143577575684,1.52330219745636
2024-12-04 22:02:28.229041700,7.123041748046875,-1.8109652996063232,2.571601390838623,1.0774216651916504
2024-12-04 22:02:28.239068400,7.133068359375,-1.6760478019714355,2.5350139141082764,0.5995076298713684
2024-12-04 22:02:28.249094400,7.143094482421875,-1.4677329063415527,2.458412408828736,0.1495362073183059
2024-12-04 22:02:28.259121700,7.15312158203125,-1.1882058382034302,2.531805992126465,-0.3060415983200073
2024-12-04 22:02:28.269147600,7.163147705078125,-0.8270266652107239,2.605966329574585,-0.8360012769699097
2024-12-04 22:02:28.279174700,7.173174560546875,-0.4422124922275543,2.531967163085937,-1.4530502557754517
2024-12-04 22:02:28.289200600,7.18320068359375,-0.1428316235542297,2.279332637786865,-2.0652050971984863
2024-12-04 22:02:28.299226600,7.1932265625,0.1330432295799255,1.9465335607528689,-2.539885997772217
2024-12-04 22:02:28.309253400,7.20325341796875,0.3882630169391632,1.5075056552886963,-2.683269023895264
2024-12-04 22:02:28.319279600,7.213279541015625,0.4386228024959564,0.9191381931304932,-2.3634095191955566
2024-12-04 22:02:28.329306600,7.223306640625,0.2135792970657348,0.2170421034097671,-1.0161828994750977
2024-12-04 22:02:28.339332600,7.23333251953125,0.2474910616874694,-0.1052462682127952,0.477459579706192
2024-12-04 22:02:28.349359600,7.243359619140625,0.7444126605987549,-0.3662882447242737,0.4574933350086212
2024-12-04 22:02:28.359385600,7.253385498046875,1.0018112659454346,-0.7751691341400146,-0.5451045632362366
2024-12-04 22:02:28.369412600,7.26341259765625,0.4780156910419464,-1.619218111038208,-1.332558035850525
2024-12-04 22:02:28.379438600,7.2734384765625,-0.005514308810234,-2.530939102172852,-1.3996223211288452
2024-12-04 22:02:28.389464600,7.283464599609375,0.0307864416390657,-2.984316825866699,-0.7889366745948792
2024-12-04 22:02:28.399491600,7.29349169921875,0.1392046362161636,-2.095905065536499,-0.0994089469313621
2024-12-04 22:02:28.409517600,7.303517578125,0.0679403021931648,0.3151565492153168,0.0656761452555656
2024-12-04 22:02:28.419544600,7.313544677734375,-0.2529390752315521,1.882062554359436,-0.2831813991069793
2024-12-04 22:02:28.429570600,7.323570556640625,-0.4204290211200714,1.041216254234314,-0.6428567171096802
2024-12-04 22:02:28.439597600,7.33359765625,-0.2751706838607788,-0.9531089067459106,-1.1143567562103271
2024-12-04 22:02:28.449623600,7.34362353515625,0.0090432073920965,-2.297258138656616,-1.6698132753372192
2024-12-04 22:02:28.459650600,7.353650634765625,0.3829138278961181,-2.8859212398529053,-2.1009767055511475
2024-12-04 22:02:28.469676500,7.363676513671875,0.8518296480178833,-3.180229902267456,-2.2998268604278564
2024-12-04 22:02:28.479702500,7.37370263671875,1.4212862253189087,-3.244779825210572,-2.3498597145080566
2024-12-04 22:02:28.489729500,7.3837294921875,2.0527284145355225,-3.2373013496398926,-2.3044137954711914
2024-12-04 22:02:28.499755500,7.393755615234375,2.565813064575196,-3.395004272460937,-2.1846790313720703
2024-12-04 22:02:28.509782500,7.403782470703125,2.846556663513184,-3.7524728775024414,-2.015532732009888
2024-12-04 22:02:28.519808500,7.41380859375,2.8987982273101807,-3.997783660888672,-1.7877956628799438
2024-12-04 22:02:28.529835500,7.42383544921875,2.6942780017852783,-3.789891004562378,-1.5286740064620972
2024-12-04 22:02:28.539861500,7.433861572265625,2.3705027103424072,-3.1940741539001465,-1.4858088493347168
2024-12-04 22:02:28.549888500,7.443888427734375,2.1774184703826904,-2.101161479949951,-1.7686158418655396
2024-12-04 22:02:28.559914500,7.45391455078125,1.99400007724762,-0.6465306282043457,-2.150178909301758
2024-12-04 22:02:28.569940500,7.4639404296875,1.6382888555526731,0.6859843730926514,-2.2242939472198486
2024-12-04 22:02:28.579967500,7.473967529296875,1.1874680519104004,1.6764401197433472,-1.974522590637207
2024-12-04 22:02:28.589993500,7.483993408203125,0.797386646270752,2.349261283874512,-1.6048742532730105
2024-12-04 22:02:28.600020700,7.494020751953125,0.6270355582237244,2.516163349151612,-1.253661036491394
2024-12-04 22:02:28.610046700,7.504046630859375,0.6733039617538452,2.187927722930908,-0.968938171863556
2024-12-04 22:02:28.620073500,7.514073486328125,0.7947497367858887,1.679722547531128,-0.777055025100708
2024-12-04 22:02:28.630099500,7.524099365234375,0.7868225574493408,1.268249273300171,-0.6892431378364563
2024-12-04 22:02:28.640124700,7.534124755859375,0.6051110029220581,1.0868645906448364,-0.6307923197746277
2024-12-04 22:02:28.650151700,7.544151611328125,0.349422812461853,1.046678066253662,-0.5482468008995056
2024-12-04 22:02:28.660177700,7.554177734375,0.1299248784780502,1.1373586654663086,-0.4637039601802826
2024-12-04 22:02:28.670205000,7.564204833984375,-0.0079674702137708,1.2907226085662842,-0.4192278385162353
2024-12-04 22:02:28.680231000,7.57423095703125,-0.050018947571516,1.4478001594543457,-0.4288507103919983
2024-12-04 22:02:28.690257700,7.584257568359375,-0.0132204527035355,1.5554763078689575,-0.5029252171516418
2024-12-04 22:02:28.700283600,7.59428369140625,0.053086057305336,1.6338201761245728,-0.6368902921676636
2024-12-04 22:02:28.710310700,7.604310546875,0.1180160567164421,1.694116234779358,-0.8212262988090515
2024-12-04 22:02:28.720337000,7.6143369140625,0.1767371147871017,1.7284377813339231,-1.0453596115112305
2024-12-04 22:02:28.730363000,7.62436279296875,0.2319814562797546,1.651818871498108,-1.2688568830490112
2024-12-04 22:02:28.740390000,7.634389892578125,0.2597977221012115,1.4176958799362185,-1.480992317199707
2024-12-04 22:02:28.750416000,7.644415771484375,0.2641416192054748,1.0256361961364746,-1.742524266242981
2024-12-04 22:02:28.760442600,7.654442626953125,0.2137831300497055,0.5636841654777527,-2.0974605083465576
2024-12-04 22:02:28.770468600,7.664468505859375,0.0540320873260498,0.0831444635987281,-2.5912702083587646
2024-12-04 22:02:28.780496000,7.674495849609375,-0.1449748277664184,-0.4013834595680237,-3.1407341957092285
2024-12-04 22:02:28.790521900,7.68452197265625,-0.2798532843589782,-0.996269464492798,-3.4952502250671387
2024-12-04 22:02:28.800548900,7.694548828125,-0.3054664134979248,-1.7801930904388428,-3.3622963428497314
2024-12-04 22:02:28.810574800,7.704574951171875,-0.2187056988477707,-2.670973300933838,-2.668940544128418
2024-12-04 22:02:28.820600800,7.714600830078125,-0.0344928875565528,-3.298733949661255,-1.7052525281906128
2024-12-04 22:02:28.830627800,7.7246279296875,0.2000503838062286,-3.365325689315796,-0.8576844930648804
2024-12-04 22:02:28.840653800,7.73465380859375,0.4563802480697632,-2.8950893878936768,-0.3612131774425506
2024-12-04 22:02:28.850680800,7.744680908203125,0.7012821435928345,-2.248032331466675,-0.1915346682071685
2024-12-04 22:02:28.860706800,7.754706787109375,0.9276724457740784,-1.6273432970046997,-0.1490597426891327
2024-12-04 22:02:28.870733800,7.76473388671875,1.0920144319534302,-0.97539883852005,-0.0099013298749923
2024-12-04 22:02:28.880759800,7.774759765625,1.081395387649536,-0.2609892785549164,0.2406007051467895
2024-12-04 22:02:28.890786800,7.784786865234375,0.9331567883491516,0.3184336125850677,0.3417624831199646
2024-12-04 22:02:28.900812800,7.794812744140625,0.729918897151947,0.6595926284790039,0.2231949865818023
2024-12-04 22:02:28.910838800,7.8048388671875,0.4369258880615234,0.6718910932540894,0.0014990724157541
2024-12-04 22:02:28.920865800,7.81486572265625,0.070111945271492,0.4772509932518005,-0.1557410508394241
2024-12-04 22:02:28.930891800,7.824891845703125,-0.2714821398258209,0.1479780226945877,-0.1310815066099167
2024-12-04 22:02:28.940918800,7.834918701171875,-0.5146670341491699,-0.2201449275016784,0.1082062870264053
2024-12-04 22:02:28.950945000,7.844945068359375,-0.65677410364151,-0.440377414226532,0.4921377003192901
2024-12-04 22:02:28.960971800,7.8549716796875,-0.8023352026939392,-0.35297492146492,0.9517787098884584
2024-12-04 22:02:28.970997800,7.864997802734375,-0.9067620635032654,-0.2825039625167846,1.58874773979187
2024-12-04 22:02:28.981024800,7.875024658203125,-0.9747519493103028,-0.2401938140392303,2.277035713195801
2024-12-04 22:02:28.991050800,7.88505078125,-1.044995903968811,-0.0167873501777648,2.9414830207824707
2024-12-04 22:02:29.001076700,7.89507666015625,-1.1085222959518433,0.3388484716415405,3.5738680362701416
2024-12-04 22:02:29.011103700,7.905103759765625,-1.1273785829544067,0.7489547729492188,4.08380126953125
2024-12-04 22:02:29.021129700,7.915129638671875,-1.1548227071762085,1.318669676780701,4.329619884490967
2024-12-04 22:02:29.031156700,7.92515673828125,-1.1560325622558594,2.079805850982666,4.246465682983398
2024-12-04 22:02:29.041182700,7.9351826171875,-1.1134649515151978,2.8311257362365723,3.836853504180908
2024-12-04 22:02:29.051209700,7.945209716796875,-1.0528117418289185,3.1897406578063965,3.306704044342041
2024-12-04 22:02:29.061236000,7.955236083984375,-1.0542033910751345,2.9979422092437744,2.870333909988404
2024-12-04 22:02:29.071262000,7.965261962890625,-1.0712995529174805,2.277018070220948,2.705871820449829
2024-12-04 22:02:29.081288700,7.975288818359375,-1.0330708026885986,1.1729326248168943,2.7594687938690186
2024-12-04 22:02:29.091314700,7.985314697265625,-0.9652080535888672,-0.3234482705593109,2.866511821746826
2024-12-04 22:02:29.101341700,7.995341796875,-0.8987784385681152,-2.344285726547241,2.894362688064575
2024-12-04 22:02:29.111367700,8.00536767578125,-0.8219374418258667,-4.341860294342041,2.758996725082397
2024-12-04 22:02:29.121395000,8.01539501953125,-0.8659193515777588,-5.6058030128479,2.4725918769836426
2024-12-04 22:02:29.131421000,8.0254208984375,-0.9956558346748352,-5.400803565979004,2.153136730194092
2024-12-04 22:02:29.141447700,8.03544775390625,-1.1137268543243408,-4.148334503173828,1.9648985862731927
2024-12-04 22:02:29.151473700,8.0454736328125,-1.1544556617736816,-2.679854154586792,1.9161064624786377
2024-12-04 22:02:29.161499600,8.055499755859374,-1.0671167373657229,-1.5058118104934692,1.8555456399917605
2024-12-04 22:02:29.171527000,8.06552685546875,-1.0079282522201538,-0.8501155972480774,1.7067444324493408
2024-12-04 22:02:29.181553000,8.075552978515624,-1.000521898269653,-0.3679452538490295,1.548755168914795
2024-12-04 22:02:29.191580000,8.085579833984376,-1.095386028289795,0.1780557781457901,1.4024949073791504
2024-12-04 22:02:29.201606000,8.09560595703125,-1.232067346572876,0.7418278455734253,1.2812657356262207
2024-12-04 22:02:29.211632600,8.105632568359376,-1.3985450267791748,1.464767336845398,1.2221903800964355
2024-12-04 22:02:29.221658600,8.11565869140625,-1.5460690259933472,2.2662346363067627,1.2206835746765137
2024-12-04 22:02:29.231686000,8.125685791015625,-1.665421485900879,2.8461148738861084,1.3571103811264038
2024-12-04 22:02:29.241711900,8.1357119140625,-1.6918392181396484,2.9874963760375977,1.7740193605422974
2024-12-04 22:02:29.251737900,8.14573779296875,-1.6484299898147583,2.8086977005004883,2.2309162616729736
2024-12-04 22:02:29.261764900,8.155764892578125,-1.5895376205444336,2.5099968910217285,2.517287492752075
2024-12-04 22:02:29.271790800,8.165790771484374,-1.5562862157821655,2.2354559898376465,2.591709852218628
2024-12-04 22:02:29.281817900,8.17581787109375,-1.588333249092102,2.0009841918945312,2.473548889160156
2024-12-04 22:02:29.291843800,8.18584375,-1.6417962312698364,1.8031766414642327,2.1852993965148926
2024-12-04 22:02:29.301870800,8.195870849609374,-1.6523704528808594,1.605876326560974,1.7073824405670166
2024-12-04 22:02:29.311896800,8.205896728515626,-1.5949960947036743,1.5073471069335938,1.107891082763672
2024-12-04 22:02:29.321923800,8.215923828125,-1.4642751216888428,1.559847116470337,0.4890306293964386
2024-12-04 22:02:29.331949800,8.22594970703125,-1.2490578889846802,1.7497645616531372,-0.0806879475712776
2024-12-04 22:02:29.341975800,8.235975830078125,-0.8975632190704346,1.8938395977020264,-0.5572133660316467
2024-12-04 22:02:29.352002800,8.2460029296875,-0.4824861884117126,1.9962091445922847,-0.99355149269104
2024-12-04 22:02:29.362028800,8.25602880859375,-0.1163244843482971,1.9420307874679563,-1.4904626607894895
2024-12-04 22:02:29.372055800,8.266055908203125,0.0362338945269584,1.6610082387924194,-2.036114454269409
2024-12-04 22:02:29.382081800,8.276081787109375,0.0928377881646156,1.3818367719650269,-2.54862904548645
2024-12-04 22:02:29.392108800,8.28610888671875,0.2264866530895233,1.0919325351715088,-3.009681701660156
2024-12-04 22:02:29.402134800,8.296134765625,0.4357669651508331,0.7692319750785828,-3.3342411518096924
2024-12-04 22:02:29.412160800,8.306160888671876,0.5742835998535156,0.209804356098175,-3.104930877685547
2024-12-04 22:02:29.422187800,8.316187744140626,0.4726507365703583,-0.6263889670372009,-1.40657639503479
2024-12-04 22:02:29.432213800,8.3262138671875,0.5865815877914429,-0.8069608807563782,-0.0561928302049636
2024-12-04 22:02:29.442240800,8.33624072265625,0.8868854641914368,-1.0449143648147583,-0.3759722113609314
2024-12-04 22:02:29.452266800,8.346266845703125,0.8557608127593994,-1.7846262454986572,-1.309455633163452
2024-12-04 22:02:29.462293800,8.356293701171875,0.4124037027359009,-2.87730073928833,-1.7969486713409424
2024-12-04 22:02:29.472319700,8.36631982421875,0.2961673736572265,-3.6814467906951904,-1.6214426755905151
2024-12-04 22:02:29.482346800,8.3763466796875,0.6486058235168457,-3.28579044342041,-0.5302194952964783
2024-12-04 22:02:29.492372700,8.386372802734375,0.6611974835395813,-0.6229975819587708,0.9434798359870912
2024-12-04 22:02:29.502398700,8.396398681640624,0.1404411345720291,1.9746627807617188,1.643135666847229
2024-12-04 22:02:29.512426000,8.406426025390624,-0.429399698972702,2.291611433029175,1.3401834964752195
2024-12-04 22:02:29.522452000,8.416451904296874,-0.6395188570022583,1.044725775718689,0.5080758929252625
2024-12-04 22:02:29.532478700,8.426478759765626,-0.5224396586418152,-0.0962602943181991,-0.4307000637054443
2024-12-04 22:02:29.542504700,8.436504638671876,-0.1989863216876983,-1.0049090385437012,-1.350386381149292
2024-12-04 22:02:29.552531700,8.44653173828125,0.2662945389747619,-1.9706476926803589,-2.04993224143982
2024-12-04 22:02:29.562557700,8.4565576171875,0.8445526361465454,-2.6930277347564697,-2.3718714714050293
2024-12-04 22:02:29.572585000,8.4665849609375,1.5512887239456177,-3.1654183864593506,-2.525676727294922
2024-12-04 22:02:29.582611000,8.47661083984375,2.3885931968688965,-3.780381202697754,-2.525836706161499
2024-12-04 22:02:29.592637000,8.486636962890625,3.1012096405029297,-4.547507762908936,-2.4336419105529785
2024-12-04 22:02:29.602663700,8.49666357421875,3.4179911613464355,-5.252458095550537,-2.259758234024048
2024-12-04 22:02:29.612689700,8.506689697265625,3.174998998641968,-5.714986324310303,-2.030615329742432
2024-12-04 22:02:29.622717000,8.516717041015625,2.5407187938690186,-5.4353861808776855,-1.9446425437927248
2024-12-04 22:02:29.632743400,8.526743408203124,1.9274028539657595,-4.202503204345703,-2.170216083526612
2024-12-04 22:02:29.642770200,8.536770263671874,1.602850317955017,-2.6964757442474365,-2.393239498138428
2024-12-04 22:02:29.652796200,8.546796142578126,1.4077625274658203,-1.3712726831436155,-2.290600299835205
2024-12-04 22:02:29.662823200,8.5568232421875,1.2014039754867554,-0.219675987958908,-1.9116867780685425
2024-12-04 22:02:29.672849400,8.566849365234376,1.0513046979904177,0.796520471572876,-1.4807145595550537
2024-12-04 22:02:29.682875400,8.57687548828125,1.0211281776428225,1.6987335681915283,-1.1652828454971311
2024-12-04 22:02:29.692902400,8.58690234375,1.0838834047317505,2.44083309173584,-1.0144637823104858
2024-12-04 22:02:29.702928400,8.596928466796875,1.1970481872558594,2.7948033809661865,-0.94268536567688
2024-12-04 22:02:29.712955100,8.606955078125,1.3146432638168335,2.6927175521850586,-0.8876686692237854
2024-12-04 22:02:29.722981000,8.616981201171875,1.3394296169281006,2.298194408416748,-0.8090088367462158
2024-12-04 22:02:29.733008400,8.62700830078125,1.205814242362976,1.8695040941238403,-0.7021244168281555
2024-12-04 22:02:29.743034400,8.637034423828124,0.9185076355934144,1.474177360534668,-0.6383870244026184
2024-12-04 22:02:29.753061400,8.647061279296874,0.5618177056312561,1.194031834602356,-0.638623833656311
2024-12-04 22:02:29.763087400,8.65708740234375,0.2243727147579193,1.1150721311569214,-0.6881725788116455
2024-12-04 22:02:29.773113300,8.66711328125,-0.0490641556680202,1.2544939517974854,-0.7936739921569824
2024-12-04 22:02:29.783140000,8.67714013671875,-0.2051443755626678,1.3273602724075315,-0.893058180809021
2024-12-04 22:02:29.793166300,8.687166259765625,-0.2503118813037872,1.194784164428711,-0.949034869670868
2024-12-04 22:02:29.803193300,8.697193359375,-0.248975396156311,1.035089373588562,-0.997011423110962
2024-12-04 22:02:29.813219300,8.70721923828125,-0.2592725157737732,0.9490061402320862,-1.038931965827942
2024-12-04 22:02:29.823246300,8.717246337890625,-0.2777796387672424,0.9406703114509584,-1.0674492120742798
2024-12-04 22:02:29.833272300,8.727272216796875,-0.2396783381700515,0.9776046276092528,-1.0860122442245483
2024-12-04 22:02:29.843298300,8.73729833984375,-0.1449628472328186,0.9551747441291808,-1.0975470542907717
2024-12-04 22:02:29.853325300,8.7473251953125,-0.0368371717631816,0.8348821401596069,-1.131347894668579
2024-12-04 22:02:29.863351300,8.757351318359374,0.0907310023903846,0.6158915758132935,-1.2013763189315796
2024-12-04 22:02:29.873378300,8.76737841796875,0.2007762789726257,0.3474677801132202,-1.2869282960891724
2024-12-04 22:02:29.883404300,8.777404296875,0.1892888993024826,0.1145727112889289,-1.4127894639968872
2024-12-04 22:02:29.893431300,8.787431396484376,0.0580744296312332,0.0509165041148662,-1.634806513786316
2024-12-04 22:02:29.903457300,8.797457275390625,-0.0522197596728801,0.1176046505570411,-1.964336633682251
2024-12-04 22:02:29.913484300,8.807484375,-0.0776425600051879,0.1423302441835403,-2.346672773361206
2024-12-04 22:02:29.923510300,8.81751025390625,0.0081832557916641,-0.0790537744760513,-2.582173109054565
2024-12-04 22:02:29.933536300,8.827536376953125,0.2232998311519622,-0.5672245025634766,-2.471860647201538
2024-12-04 22:02:29.943563300,8.837563232421875,0.5392496585845947,-1.221630334854126,-2.0909576416015625
2024-12-04 22:02:29.953589200,8.84758935546875,0.8470863103866577,-1.8570771217346191,-1.6266416311264038
2024-12-04 22:02:29.963616300,8.8576162109375,1.0259019136428833,-2.280402421951294,-1.1897209882736206
2024-12-04 22:02:29.973642200,8.867642333984374,1.0393356084823608,-2.377066135406494,-0.7685326933860779
2024-12-04 22:02:29.983669200,8.877669189453124,0.9385321140289308,-2.081688165664673,-0.369319200515747
2024-12-04 22:02:29.993695200,8.8876953125,0.8070558309555054,-1.4611414670944214,0.0240323487669229
2024-12-04 22:02:30.003722200,8.89772216796875,0.6950229406356812,-0.7610757946968079,0.3537901937961578
2024-12-04 22:02:30.013748500,8.90774853515625,0.6172255873680115,-0.2506615221500397,0.5618051886558533
2024-12-04 22:02:30.023774500,8.9177744140625,0.5150739550590515,0.005046141333878,0.7165349721908569
2024-12-04 22:02:30.033801200,8.92780126953125,0.3282212316989898,0.0664485171437263,0.8492708802223206
2024-12-04 22:02:30.043827200,8.9378271484375,0.0676569864153862,-0.0286376625299453,0.87288498878479
2024-12-04 22:02:30.053854200,8.947854248046875,-0.256554365158081,-0.2110391706228256,0.7633382678031921
2024-12-04 22:02:30.063880200,8.957880126953125,-0.6992416381835938,-0.3325651586055755,0.6971306204795837
2024-12-04 22:02:30.073907500,8.967907470703125,-1.1486772298812866,-0.3154511451721191,0.9340949654579164
2024-12-04 22:02:30.083933400,8.977933349609375,-1.396116018295288,-0.4183900356292724,1.5144035816192627
2024-12-04 22:02:30.093959400,8.98795947265625,-1.4907325506210327,-0.5254116058349609,2.311908006668091
2024-12-04 22:02:30.103986200,8.997986083984374,-1.5313208103179932,-0.3704638183116913,3.208897590637207
2024-12-04 22:02:30.114012200,9.00801220703125,-1.4732027053833008,0.0128185767680406,4.018999099731445
2024-12-04 22:02:30.124039400,9.018039306640626,-1.2946574687957764,0.5534102320671082,4.573984622955322
2024-12-04 22:02:30.134065400,9.0280654296875,-1.1057641506195068,1.2179371118545532,4.734760284423828
2024-12-04 22:02:30.144092400,9.038092529296875,-0.9560022950172424,1.808809280395508,4.41171407699585
2024-12-04 22:02:30.154118400,9.048118408203123,-0.8324010372161865,1.9680447578430176,3.771932601928711
2024-12-04 22:02:30.164145200,9.058145263671875,-0.8579350709915161,1.4879571199417114,3.118232011795044
2024-12-04 22:02:30.174171100,9.068171142578125,-0.9949301481246948,0.4768198430538177,2.704322338104248
2024-12-04 22:02:30.184197000,9.078197021484376,-1.1406347751617432,-0.6931893825531006,2.530941963195801
2024-12-04 22:02:30.194224400,9.088224365234376,-1.2423653602600098,-2.032461166381836,2.42908787727356
2024-12-04 22:02:30.204250400,9.09825048828125,-1.273440957069397,-3.5024330615997314,2.2837131023406982
2024-12-04 22:02:30.214277400,9.10827734375,-1.254473328590393,-4.650866985321045,2.028698444366455
2024-12-04 22:02:30.224303400,9.118303466796876,-1.241154670715332,-5.129356384277344,1.5979458093643188
2024-12-04 22:02:30.234330400,9.128330322265626,-1.2946906089782717,-5.026125907897949,1.1262317895889282
2024-12-04 22:02:30.244356400,9.1383564453125,-1.4542063474655151,-4.350289344787598,0.8434777855873108
2024-12-04 22:02:30.254383400,9.14838330078125,-1.6268534660339355,-3.3550472259521484,0.6784678101539612
2024-12-04 22:02:30.264409300,9.158409423828124,-1.7987709045410156,-2.391679525375366,0.5579846501350403
2024-12-04 22:02:30.274435300,9.168435302734377,-1.9111040830612185,-1.5727176666259766,0.6062341928482056
2024-12-04 22:02:30.284462300,9.17846240234375,-1.9682514667510984,-0.6192740797996521,0.7013677954673767
2024-12-04 22:02:30.294488000,9.188488037109376,-1.928259253501892,0.5067048072814941,0.7380483150482178
2024-12-04 22:02:30.304515300,9.198515380859376,-1.932337641716004,1.6321909427642822,0.7715498208999634
2024-12-04 22:02:30.314541300,9.208541259765624,-2.038127183914185,2.680062055587769,0.8783668279647827
2024-12-04 22:02:30.324568300,9.218568359375,-2.2332842350006104,3.4157509803771973,1.166895866394043
2024-12-04 22:02:30.334594300,9.22859423828125,-2.3118436336517334,3.802607774734497,1.567596673965454
2024-12-04 22:02:30.344621300,9.238621337890624,-2.1901142597198486,3.878934144973755,1.9882248640060425
2024-12-04 22:02:30.354647300,9.248647216796876,-1.972738265991211,3.8635623455047607,2.3632969856262207
2024-12-04 22:02:30.364673300,9.25867333984375,-1.8010560274124146,3.86096453666687,2.6351332664489746
2024-12-04 22:02:30.374700300,9.2687001953125,-1.6916605234146118,3.86582088470459,2.7476630210876465
2024-12-04 22:02:30.384726300,9.278726318359375,-1.6006032228469849,3.787372350692749,2.669900417327881
2024-12-04 22:02:30.394753300,9.288753173828123,-1.4801831245422363,3.611156702041626,2.397084951400757
2024-12-04 22:02:30.404779300,9.298779296875,-1.4057319164276123,3.322784900665283,1.9829413890838623
2024-12-04 22:02:30.414806300,9.30880615234375,-1.395762324333191,2.957373142242432,1.432658553123474
2024-12-04 22:02:30.424832300,9.318832275390625,-1.3366073369979858,2.6201066970825195,0.7723210453987122
2024-12-04 22:02:30.434858200,9.328858154296874,-1.162438154220581,2.222917079925537,0.0391211323440074
2024-12-04 22:02:30.444885200,9.33888525390625,-0.8763701319694519,1.7584314346313477,-0.7020666599273682
2024-12-04 22:02:30.454911200,9.3489111328125,-0.4947974383831024,1.2951748371124268,-1.391535401344299
2024-12-04 22:02:30.464938500,9.3589384765625,-0.0344577766954898,0.8966976404190063,-1.9891133308410645
2024-12-04 22:02:30.474964500,9.368964599609376,0.3484571278095245,0.5428947806358337,-2.5421745777130127
2024-12-04 22:02:30.484991200,9.3789912109375,0.5823029279708862,0.3174280822277069,-2.9951133728027344
2024-12-04 22:02:30.495017200,9.389017333984375,0.7660093903541565,0.2107027173042297,-3.2680702209472656
2024-12-04 22:02:30.505044200,9.399044189453123,0.9119527339935304,0.0837757885456085,-3.3127896785736084
2024-12-04 22:02:30.515070200,9.4090703125,0.9180276989936828,-0.1563558578491211,-2.9350833892822266
2024-12-04 22:02:30.525096400,9.419096435546876,0.6905783414840698,-0.3211522996425628,-1.573636770248413
2024-12-04 22:02:30.535123500,9.42912353515625,0.5822787284851074,0.3025341928005218,0.0678320750594139
2024-12-04 22:02:30.545149400,9.4391494140625,0.902111828327179,0.5215551257133484,0.2915491163730621
2024-12-04 22:02:30.555176200,9.44917626953125,1.1992331743240356,-0.3874936103820801,-0.5975083112716675
2024-12-04 22:02:30.565202200,9.4592021484375,1.0172853469848633,-2.627531051635742,-1.350026249885559
2024-12-04 22:02:30.575229400,9.4692294921875,0.3154486119747162,-4.919351577758789,-1.3471455574035645
2024-12-04 22:02:30.585255400,9.47925537109375,-0.4045386016368866,-5.271446704864502,-0.5243566036224365
2024-12-04 22:02:30.595281400,9.489281494140624,-1.0514709949493408,-3.527750015258789,0.4327616691589355
2024-12-04 22:02:30.605308400,9.499308349609375,-1.3774220943450928,-0.5909396409988403,0.7015025615692139
2024-12-04 22:02:30.615334400,9.50933447265625,-1.366193413734436,1.3175474405288696,0.4465898871421814
2024-12-04 22:02:30.625361200,9.519361083984377,-1.306109070777893,1.3476643562316897,0.0272678267210721
2024-12-04 22:02:30.635387000,9.529386962890625,-1.091077446937561,0.5442395806312561,-0.4498095214366913
2024-12-04 22:02:30.645414100,9.5394140625,-0.5789940357208252,-0.385648101568222,-1.0003820657730105
2024-12-04 22:02:30.655440100,9.549440185546874,0.3429219722747803,-1.4970941543579102,-1.322049260139465
2024-12-04 22:02:30.665467100,9.559467041015624,1.417403221130371,-2.4638419151306152,-1.5231457948684692
2024-12-04 22:02:30.675493000,9.5694931640625,2.388279676437378,-2.9098010063171387,-1.9601761102676392
2024-12-04 22:02:30.685519000,9.57951904296875,3.2927405834198,-3.35093092918396,-2.360051393508911
2024-12-04 22:02:30.695545900,9.5895458984375,4.078202247619629,-4.094744682312012,-2.5815863609313965
2024-12-04 22:02:30.705572000,9.599572021484375,4.573009490966797,-4.951290607452393,-2.5706934928894043
2024-12-04 22:02:30.715599000,9.60959912109375,4.452272891998291,-5.651649951934815,-2.2932708263397217
2024-12-04 22:02:30.725625000,9.619625,3.653798818588257,-5.127350807189941,-1.878061890602112
2024-12-04 22:02:30.735652000,9.629652099609377,2.648339033126831,-3.3244857788085938,-1.592687964439392
2024-12-04 22:02:30.745677800,9.639677734375,1.970597267150879,-1.7847946882247925,-1.425023317337036
2024-12-04 22:02:30.755705000,9.649705078125,1.644299030303955,-0.672170102596283,-1.122676968574524
2024-12-04 22:02:30.765731000,9.65973095703125,1.596784591674805,0.1856667250394821,-0.743813157081604
2024-12-04 22:02:30.775757000,9.669757080078124,1.769370675086975,0.9759117960929872,-0.4872697591781616
2024-12-04 22:02:30.785784000,9.6797841796875,2.0125906467437744,1.797486662864685,-0.4624519944190979
2024-12-04 22:02:30.795810000,9.68981005859375,2.1545250415802,2.594230890274048,-0.6432089805603027
2024-12-04 22:02:30.805836800,9.6998369140625,2.1110780239105225,3.0637524127960205,-0.9163987040519714
2024-12-04 22:02:30.815862800,9.70986279296875,1.8493056297302248,2.975892782211304,-1.162628412246704
2024-12-04 22:02:30.825890000,9.71989013671875,1.4107929468154907,2.4023213386535645,-1.3164962530136108
2024-12-04 22:02:30.835916000,9.729916015625,0.8853318691253662,1.623560905456543,-1.329498291015625
2024-12-04 22:02:30.845942000,9.73994189453125,0.3968522548675537,0.8262528777122498,-1.2437636852264404
2024-12-04 22:02:30.855969000,9.749968994140623,-0.0063681597821414,0.1623686254024505,-1.1299822330474854
2024-12-04 22:02:30.865995000,9.7599951171875,-0.235476478934288,-0.2890077233314514,-1.0078623294830322
2024-12-04 22:02:30.876022000,9.77002197265625,-0.2522876560688019,-0.5650739073753357,-0.9583864212036132
2024-12-04 22:02:30.886048000,9.780048095703124,-0.094172216951847,-0.691758394241333,-0.9474037289619446
2024-12-04 22:02:30.896075000,9.790074951171874,0.0435150749981403,-0.5803397297859192,-0.9655968546867372
2024-12-04 22:02:30.906101000,9.80010107421875,-0.0016415640711784,-0.143033429980278,-0.9877998232841492
2024-12-04 22:02:30.916128000,9.8101279296875,-0.167031317949295,0.487627625465393,-0.9975712299346924
2024-12-04 22:02:30.926154000,9.820154052734376,-0.3145671486854553,0.9332696199417114,-1.0157785415649414
2024-12-04 22:02:30.936180200,9.83018017578125,-0.3416874408721924,1.160634160041809,-1.0292689800262451
2024-12-04 22:02:30.946207000,9.84020703125,-0.2094465643167495,1.2208763360977173,-1.0396728515625
2024-12-04 22:02:30.956233000,9.85023291015625,0.0324560776352882,1.2136280536651611,-1.060270071029663
2024-12-04 22:02:30.966260000,9.860260009765623,0.3157527148723602,1.1396851539611816,-1.0776811838150024
2024-12-04 22:02:30.976286000,9.870285888671877,0.5692390203475952,0.9431552886962892,-1.0870459079742432
2024-12-04 22:02:30.986313200,9.880313232421877,0.7102012634277344,0.6863885521888733,-1.1090203523635864
2024-12-04 22:02:30.996339200,9.890339111328124,0.703427791595459,0.4257503151893616,-1.1970232725143433
2024-12-04 22:02:31.006366000,9.900365966796874,0.6066219210624695,0.198239266872406,-1.3579760789871216
2024-12-04 22:02:31.016392000,9.910391845703124,0.5027812719345093,0.0293434653431177,-1.5748881101608276
2024-12-04 22:02:31.026418000,9.92041796875,0.4483097195625305,-0.1589625626802444,-1.7883388996124268
2024-12-04 22:02:31.036445000,9.93044482421875,0.4886955022811889,-0.4363954961299896,-1.859163522720337
2024-12-04 22:02:31.046471200,9.94047119140625,0.6111799478530884,-0.7766381502151489,-1.705052614212036
2024-12-04 22:02:31.056498200,9.950498291015624,0.7286471724510193,-1.1401090621948242,-1.3673642873764038
2024-12-04 22:02:31.066524000,9.96052392578125,0.7456128597259521,-1.4857795238494873,-0.9534690380096436
2024-12-04 22:02:31.076551000,9.970551025390623,0.6142934560775757,-1.7380045652389526,-0.5271227359771729
2024-12-04 22:02:31.086577000,9.980576904296877,0.3841072022914886,-1.862239122390747,-0.1274990737438202
2024-12-04 22:02:31.096603000,9.990602783203125,0.1384172737598419,-1.7624590396881104,0.1966526359319687
2024-12-04 22:02:31.106630100,10.000630126953125,-0.0616218782961368,-1.405233383178711,0.4549869298934936
2024-12-04 22:02:31.116656000,10.01065625,-0.1946339905261993,-0.8214860558509827,0.6867123246192932
2024-12-04 22:02:31.126683000,10.020682861328124,-0.2761661112308502,-0.2330549955368042,0.7911437749862671
2024-12-04 22:02:31.136708900,10.030708984375,-0.3941353559494018,0.1442177295684814,0.7308354377746582
2024-12-04 22:02:31.146735900,10.04073583984375,-0.5873715281486511,0.1992216855287552,0.6918712854385376
2024-12-04 22:02:31.156762000,10.05076220703125,-0.8331836462020874,0.0790140554308891,0.8938584923744202
2024-12-04 22:02:31.166789000,10.0607890625,-1.036460280418396,-0.2576823830604553,1.351555109024048
2024-12-04 22:02:31.176815000,10.070815185546875,-1.207140326499939,-0.6552952527999878,1.9637221097946167
2024-12-04 22:02:31.186841000,10.080841064453123,-1.3900974988937378,-0.9303246140480042,2.61275315284729
2024-12-04 22:02:31.196867800,10.090867919921877,-1.5750272274017334,-1.0300509929656982,3.162271499633789
2024-12-04 22:02:31.206893800,10.100893798828125,-1.7167376279830933,-0.9860231876373292,3.4666481018066406
2024-12-04 22:02:31.216921000,10.110921142578125,-1.7800122499465942,-0.7702812552452087,3.508833408355713
2024-12-04 22:02:31.226947000,10.120947021484374,-1.8019853830337524,-0.3502736985683441,3.300949811935425
2024-12-04 22:02:31.236974000,10.13097412109375,-1.718163251876831,0.131694808602333,2.9057695865631104
2024-12-04 22:02:31.247000000,10.141,-1.5568902492523191,0.5260956883430481,2.39432144165039
2024-12-04 22:02:31.257026000,10.151026123046876,-1.4337369203567505,0.4392750561237335,2.0706703662872314
2024-12-04 22:02:31.267053000,10.161052978515626,-1.4368960857391355,-0.1172650679945945,1.9760150909423828
2024-12-04 22:02:31.277079000,10.1710791015625,-1.5141115188598633,-0.9504477977752686,1.9862003326416016
2024-12-04 22:02:31.287106000,10.18110595703125,-1.607383370399475,-1.8039096593856807,2.01350212097168
2024-12-04 22:02:31.297132000,10.191132080078123,-1.6789121627807615,-2.444796800613404,1.990930199623108
2024-12-04 22:02:31.307159000,10.201158935546877,-1.688151717185974,-2.722575664520264,1.8951925039291384
2024-12-04 22:02:31.317185000,10.21118505859375,-1.6436338424682615,-2.5454392433166504,1.8291271924972528
2024-12-04 22:02:31.327212000,10.2212119140625,-1.5372703075408936,-1.84841787815094,1.8737869262695312
2024-12-04 22:02:31.337238000,10.231238037109376,-1.3811440467834473,-0.8820723295211792,1.91631281375885
2024-12-04 22:02:31.347264000,10.241263916015624,-1.2787247896194458,0.0215033777058124,1.939481258392334
2024-12-04 22:02:31.357291000,10.251291015625,-1.2035915851593018,0.7833378911018372,1.8916966915130613
2024-12-04 22:02:31.367317000,10.26131689453125,-1.2451189756393433,1.3231968879699707,1.8190783262252808
2024-12-04 22:02:31.377344000,10.271343994140626,-1.3800312280654907,1.5883744955062866,1.781774878501892
2024-12-04 22:02:31.387370000,10.281369873046875,-1.554524064064026,1.6409926414489746,1.7421306371688845
2024-12-04 22:02:31.397397000,10.29139697265625,-1.7090792655944824,1.693370699882507,1.6813852787017822
2024-12-04 22:02:31.407423000,10.301423095703123,-1.805384516716004,1.771545648574829,1.5910696983337402
2024-12-04 22:02:31.417450000,10.311449951171875,-1.8567025661468504,1.8395094871521,1.4231867790222168
2024-12-04 22:02:31.427476000,10.32147607421875,-1.872660517692566,1.926723599433899,1.2320455312728882
2024-12-04 22:02:31.437502000,10.331501953125,-1.856120228767395,2.003068923950196,1.024250864982605
2024-12-04 22:02:31.447529000,10.341529052734376,-1.7682619094848633,2.158906936645508,0.8447100520133972
2024-12-04 22:02:31.457555000,10.351554931640624,-1.6748145818710327,2.252305269241333,0.7467310428619385
2024-12-04 22:02:31.467582000,10.36158203125,-1.5509929656982422,2.175497770309448,0.7374160885810852
2024-12-04 22:02:31.477608000,10.37160791015625,-1.4243841171264648,1.9683319330215447,0.7293789386749268
2024-12-04 22:02:31.487635000,10.381635009765626,-1.2855846881866455,1.6648969650268557,0.62654709815979
2024-12-04 22:02:31.497661200,10.3916611328125,-1.1159343719482422,1.3586721420288086,0.407481849193573
2024-12-04 22:02:31.507687200,10.401687255859375,-0.903034806251526,1.100184440612793,0.0795555859804153
2024-12-04 22:02:31.517714000,10.4117138671875,-0.6498001217842102,0.938927948474884,-0.3167403638362884
2024-12-04 22:02:31.527740000,10.421739990234377,-0.3721135258674621,0.9449362754821776,-0.7218515276908875
2024-12-04 22:02:31.537767000,10.431766845703123,-0.0199283231049776,1.069244623184204,-1.0899031162261963
2024-12-04 22:02:31.547793000,10.44179296875,0.4112529158592224,1.2034531831741333,-1.4324684143066406
2024-12-04 22:02:31.557820200,10.451820068359376,0.7105211019515991,1.2178784608840942,-1.7738555669784546
2024-12-04 22:02:31.567846100,10.46184619140625,0.887627899646759,1.171208739280701,-2.0897037982940674
2024-12-04 22:02:31.577873000,10.471872802734374,1.0572850704193115,1.121118187904358,-2.3730721473693848
2024-12-04 22:02:31.587899000,10.48189892578125,1.30345356464386,1.0652711391448977,-2.623013496398926
2024-12-04 22:02:31.597924900,10.4919248046875,1.6727805137634275,1.0273401737213137,-2.766568899154663
2024-12-04 22:02:31.607952100,10.5019521484375,2.007859706878662,0.8312861919403076,-2.2596137523651123
2024-12-04 22:02:31.617978000,10.51197802734375,1.9011846780776973,0.7955175638198853,-0.625611424446106
2024-12-04 22:02:31.628005000,10.522005126953124,1.6672123670578003,0.5377774834632874,0.3308576941490173
2024-12-04 22:02:31.638031400,10.53203125,1.7174757719039917,-0.363116055727005,-0.1811621934175491
2024-12-04 22:02:31.648058000,10.54205810546875,1.2792961597442627,-1.3389666080474854,-1.1338202953338623
2024-12-04 22:02:31.658084000,10.552083984375,0.1510769575834274,-2.231231451034546,-1.6032660007476809
2024-12-04 22:02:31.668111000,10.562111083984377,-0.8173797726631165,-3.108430862426758,-1.519070744514465
2024-12-04 22:02:31.678137000,10.57213720703125,-1.0255252122879028,-3.93047833442688,-1.0692976713180542
2024-12-04 22:02:31.688163300,10.582163330078124,-0.92789489030838,-3.6001267433166504,-0.4518961012363434
2024-12-04 22:02:31.698190300,10.5921904296875,-0.8105855584144592,-1.6658037900924685,-0.1140011548995971
2024-12-04 22:02:31.708216000,10.602216064453126,-0.649736225605011,0.7281046509742737,-0.2066953629255294
2024-12-04 22:02:31.718243000,10.6122431640625,-0.5442201495170593,1.3795855045318604,-0.350170224905014
2024-12-04 22:02:31.728269000,10.62226904296875,-0.4441846311092376,0.2615822553634643,-0.4044640958309173
2024-12-04 22:02:31.738296300,10.63229638671875,-0.1734796315431594,-1.4823405742645264,-0.4035421013832092
2024-12-04 22:02:31.748322300,10.642322265625,0.2627809643745422,-2.7023262977600098,-0.3802232444286346
2024-12-04 22:02:31.758348300,10.652348388671877,0.7265806198120117,-2.8123867511749268,-0.4571553170681
2024-12-04 22:02:31.768375000,10.662375,1.2189602851867676,-2.3097825050354004,-0.6401873230934143
2024-12-04 22:02:31.778401000,10.672401123046876,1.743527054786682,-1.7561568021774292,-0.8914962410926819
2024-12-04 22:02:31.788428000,10.682427978515625,2.3350613117218018,-1.5060336589813232,-1.1208374500274658
2024-12-04 22:02:31.798454300,10.692454345703124,2.915626287460327,-1.367220401763916,-1.216284155845642
2024-12-04 22:02:31.808481300,10.702481201171874,3.3011436462402344,-1.165779948234558,-1.1502958536148071
2024-12-04 22:02:31.818507300,10.71250732421875,3.318253517150879,-0.8713123798370361,-0.9492155909538268
2024-12-04 22:02:31.828534000,10.722533935546876,2.907095193862915,-0.1544093787670135,-0.8441887497901917
2024-12-04 22:02:31.838560000,10.73256005859375,2.3346869945526123,1.273801326751709,-1.2412185668945312
2024-12-04 22:02:31.848586000,10.7425859375,1.6989816427230835,2.561237335205078,-1.7589386701583862
2024-12-04 22:02:31.858613200,10.75261328125,1.1712582111358645,2.7880568504333496,-1.7684991359710691
2024-12-04 22:02:31.868639200,10.76263916015625,0.9079487323760986,2.154094219207764,-1.3364346027374268
2024-12-04 22:02:31.878666200,10.772666259765623,0.9070062041282654,1.2181282043457031,-0.7923817038536072
2024-12-04 22:02:31.888692200,10.782692138671877,1.032026290893555,0.495855838060379,-0.4032243192195892
2024-12-04 22:02:31.898719000,10.792718994140625,1.1020160913467407,0.2605437338352203,-0.2700007557868957
2024-12-04 22:02:31.908745200,10.8027451171875,1.0420901775360107,0.4437841176986694,-0.3471986949443817
2024-12-04 22:02:31.918772200,10.812772216796876,0.8386646509170532,0.786849319934845,-0.5385417938232422
2024-12-04 22:02:31.928798200,10.822798095703124,0.5453667640686035,1.044469714164734,-0.7099961638450623
2024-12-04 22:02:31.938824200,10.83282421875,0.2509732246398926,1.2104216814041138,-0.8304717540740967
2024-12-04 22:02:31.948851200,10.842851318359376,0.0587976947426795,1.2768665552139282,-0.8835912942886353
2024-12-04 22:02:31.958877200,10.852877197265624,-0.0280160307884216,1.2312604188919067,-0.9245235323905944
2024-12-04 22:02:31.968904200,10.862904296875,0.034683808684349,1.098210692405701,-0.9773133993148804
2024-12-04 22:02:31.978930200,10.87293017578125,0.1822942942380905,1.064280390739441,-1.0657145977020264
2024-12-04 22:02:31.988957200,10.882957275390623,0.2571427524089813,1.028160810470581,-1.2024685144424438
2024-12-04 22:02:31.998983200,10.892983154296877,0.2299510687589645,0.9546892046928406,-1.337235689163208
2024-12-04 22:02:32.009009200,10.903009033203125,0.1398490667343139,0.7985234260559082,-1.4436672925949097
2024-12-04 22:02:32.019036400,10.913036376953125,0.0949183404445648,0.5549083948135376,-1.536962389945984
2024-12-04 22:02:32.029062100,10.923062255859374,0.140249952673912,0.4191823601722717,-1.6427726745605469
2024-12-04 22:02:32.039089200,10.933089111328124,0.2368582487106323,0.3450740575790405,-1.755268096923828
2024-12-04 22:02:32.049115100,10.943115234375,0.342428594827652,0.3262306451797485,-1.862061142921448
2024-12-04 22:02:32.059142100,10.95314208984375,0.4443176686763763,0.4408208727836609,-1.945042371749878
2024-12-04 22:02:32.069168000,10.963168212890626,0.5243942737579346,0.5875174403190613,-2.043206214904785
2024-12-04 22:02:32.079195100,10.973195068359376,0.6160922050476074,0.5394982695579529,-2.2369964122772217
2024-12-04 22:02:32.089221000,10.98322119140625,0.7194575667381287,0.1821674257516861,-2.472574710845948
2024-12-04 22:02:32.099247000,10.9932470703125,0.80662602186203,-0.5238687992095947,-2.591341018676758
2024-12-04 22:02:32.109274000,11.003274169921877,0.8151142001152039,-1.440349578857422,-2.4595396518707275
2024-12-04 22:02:32.119300000,11.013300048828125,0.6973153948783875,-2.30312442779541,-1.9961230754852293
2024-12-04 22:02:32.129327000,11.0233271484375,0.4546586573123932,-2.765719175338745,-1.2320942878723145
2024-12-04 22:02:32.139353300,11.033353271484376,0.1389606446027755,-2.5370547771453857,-0.3445333242416382
2024-12-04 22:02:32.149380000,11.043380126953124,-0.1488485932350158,-1.6543371677398682,0.4125995337963104
2024-12-04 22:02:32.159406000,11.053406005859374,-0.3071767091751098,-0.5760542154312134,0.7443753480911255
2024-12-04 22:02:32.169432000,11.06343212890625,-0.3237878084182739,0.2755313813686371,0.7384742498397827
2024-12-04 22:02:32.179459000,11.073458984375,-0.298823595046997,0.6369867920875549,0.7530760765075684
2024-12-04 22:02:32.189485000,11.083485107421875,-0.3959069550037384,0.4553040266036987,0.9647855162620544
2024-12-04 22:02:32.199512300,11.09351220703125,-0.6695566177368164,0.0474118776619434,1.2933483123779297
2024-12-04 22:02:32.209538300,11.103538330078123,-1.007781147956848,-0.4035177230834961,1.5978384017944336
2024-12-04 22:02:32.219565000,11.11356494140625,-1.2448450326919556,-0.8177900314331055,1.912055492401123
2024-12-04 22:02:32.229591000,11.123591064453125,-1.3795729875564575,-1.163912296295166,2.2239480018615723
2024-12-04 22:02:32.239618000,11.1336181640625,-1.5065722465515137,-1.3024473190307615,2.526125431060791
2024-12-04 22:02:32.249644300,11.143644287109376,-1.6852056980133057,-1.42801034450531,2.7643797397613525
2024-12-04 22:02:32.259670300,11.153670166015624,-1.890665292739868,-1.4845290184020996,2.933399438858032
2024-12-04 22:02:32.269697300,11.163697265625,-2.064697742462158,-1.1310306787490845,3.036451578140259
2024-12-04 22:02:32.279723300,11.17372314453125,-2.158306360244751,-0.3443924784660339,3.087877035140991
2024-12-04 22:02:32.289750000,11.18375,-2.0767927169799805,0.5754567384719849,3.069652318954468
2024-12-04 22:02:32.299776000,11.19377587890625,-1.861615777015686,1.2679699659347534,3.0180046558380127
2024-12-04 22:02:32.309803300,11.20380322265625,-1.5592018365859983,1.551019310951233,3.0368361473083496
2024-12-04 22:02:32.319829200,11.213829345703124,-1.2149078845977783,1.30855131149292,3.1581971645355225
2024-12-04 22:02:32.329856300,11.223856201171875,-0.9490568041801452,0.6651634573936462,3.218240976333618
2024-12-04 22:02:32.339882200,11.23388232421875,-0.8268528580665588,-0.2561190128326416,3.135548114776612
2024-12-04 22:02:32.349908200,11.243908203125,-0.8807680010795593,-1.2805700302124023,2.92249608039856
2024-12-04 22:02:32.359935200,11.253935302734376,-1.101372480392456,-2.177259683609009,2.6255948543548584
2024-12-04 22:02:32.369961200,11.263961181640624,-1.3107185363769531,-2.8270063400268555,2.2936978340148926
2024-12-04 22:02:32.379988200,11.27398828125,-1.4611157178878784,-2.979539155960083,2.014986276626587
2024-12-04 22:02:32.390014200,11.28401416015625,-1.5579332113265991,-2.508821725845337,1.8694853782653809
2024-12-04 22:02:32.400041200,11.294041259765624,-1.5464448928833008,-1.6216875314712524,1.8380476236343384
2024-12-04 22:02:32.410067200,11.304067138671876,-1.4479588270187378,-0.7637207508087158,1.7554892301559448
2024-12-04 22:02:32.420093200,11.31409326171875,-1.3598185777664185,-0.1572886109352111,1.648850440979004
2024-12-04 22:02:32.430120200,11.3241201171875,-1.3928760290145874,0.3677638471126556,1.657325267791748
2024-12-04 22:02:32.440146200,11.334146240234375,-1.4850480556488037,0.8307986259460449,1.7778109312057495
2024-12-04 22:02:32.450173200,11.344173095703123,-1.6124956607818604,1.056148886680603,1.874966740608216
2024-12-04 22:02:32.460199200,11.35419921875,-1.7826690673828125,1.1562520265579224,1.864074945449829
2024-12-04 22:02:32.470226200,11.36422607421875,-1.96548330783844,1.3338369131088257,1.805731415748596
2024-12-04 22:02:32.480252200,11.374252197265625,-2.123810291290283,1.5388576984405518,1.707691669464111
2024-12-04 22:02:32.490279200,11.384279052734374,-2.1730551719665527,1.8522385358810425,1.598896026611328
2024-12-04 22:02:32.500305200,11.39430517578125,-2.1882073879241943,2.156877279281616,1.5005992650985718
2024-12-04 22:02:32.510331100,11.4043310546875,-2.134607553482056,2.389988660812378,1.4124083518981934
2024-12-04 22:02:32.520358100,11.414358154296876,-2.007284164428711,2.4776344299316406,1.316225290298462
2024-12-04 22:02:32.530384100,11.424384033203124,-1.816709995269776,2.4540436267852783,1.1972001791000366
2024-12-04 22:02:32.540411100,11.4344111328125,-1.592638373374939,2.422295570373535,1.0223220586776731
2024-12-04 22:02:32.550437000,11.44443701171875,-1.344074010848999,2.376238346099853,0.7627789378166199
2024-12-04 22:02:32.560464100,11.454464111328123,-1.0651028156280518,2.312753200531006,0.4066474735736847
2024-12-04 22:02:32.570490000,11.464489990234377,-0.7483471632003784,2.182952880859375,-0.028201887384057
2024-12-04 22:02:32.580517400,11.474517333984377,-0.3965013027191162,1.9178235530853271,-0.5282212495803833
2024-12-04 22:02:32.590543400,11.48454345703125,0.0069413292221724,1.6283550262451172,-1.058669090270996
2024-12-04 22:02:32.600569300,11.4945693359375,0.4683901965618133,1.3584929704666138,-1.5706913471221924
2024-12-04 22:02:32.610596000,11.50459619140625,0.810899019241333,1.014870285987854,-2.0914828777313232
