time,seconds_elapsed,z,y,x
2024-12-04 22:05:58.713934600,0.0619345703125,-1.133164644241333,-0.1539472490549087,-0.0769585520029068
2024-12-04 22:05:58.724010800,0.0720107421875,-1.0207011699676514,-0.4022843539714813,-0.3596419095993042
2024-12-04 22:05:58.734086700,0.082086669921875,-0.978641152381897,-0.8290166854858398,-0.5973885655403137
2024-12-04 22:05:58.744162800,0.092162841796875,-0.8435280323028564,-1.059730052947998,-0.7489189505577087
2024-12-04 22:05:58.754238700,0.10223876953125,-0.6250354647636414,-1.365634799003601,-0.7669616937637329
2024-12-04 22:05:58.764314600,0.112314697265625,-0.381005197763443,-1.6410216093063354,-0.7295887470245361
2024-12-04 22:05:58.774390800,0.122390869140625,-0.3311366736888885,-1.708631157875061,-0.6221608519554138
2024-12-04 22:05:58.784466700,0.132466796875,-0.4107745289802551,-1.514836072921753,-0.4084573686122894
2024-12-04 22:05:58.794542800,0.14254296875,-0.5260586142539978,-1.164277195930481,-0.1271213740110397
2024-12-04 22:05:58.804618500,0.152618408203125,-0.6774576902389526,-0.5502976179122925,0.1379086822271347
2024-12-04 22:05:58.814694700,0.162694580078125,-0.7710561752319336,0.3679081201553345,0.2012108862400055
2024-12-04 22:05:58.824770800,0.172770751953125,-0.6217542886734009,0.4156889319419861,0.1194001734256744
2024-12-04 22:05:58.834846700,0.1828466796875,-0.2556964457035064,0.295243501663208,0.0584181770682334
2024-12-04 22:05:58.844923000,0.1929228515625,-0.103338599205017,0.2355735450983047,-0.0249470211565494
2024-12-04 22:05:58.854998000,0.202998046875,-0.2261991053819656,0.2228110879659652,-0.1057455539703369
2024-12-04 22:05:58.865074000,0.213073974609375,-0.4037131667137146,0.4633307456970215,-0.1595259755849838
2024-12-04 22:05:58.875150000,0.223150146484375,-0.4360955059528351,0.6270514726638794,-0.1174194514751434
2024-12-04 22:05:58.885226000,0.23322607421875,-0.4391205906867981,0.6985605359077454,0.0683064758777618
2024-12-04 22:05:58.895302100,0.24330224609375,-0.4721652269363403,0.7004979848861694,0.3330420851707458
2024-12-04 22:05:58.905378000,0.2533779296875,-0.5244297981262207,0.4044676423072815,0.5700474381446838
2024-12-04 22:05:58.915454000,0.263453857421875,-0.570453941822052,-0.2819459140300751,0.7534595727920532
2024-12-04 22:05:58.925529900,0.27352978515625,-0.5935006737709045,-0.7829025387763977,0.7198270559310913
2024-12-04 22:05:58.935606000,0.28360595703125,-0.6196075081825256,-1.073500633239746,0.4439353346824646
2024-12-04 22:05:58.945682200,0.29368212890625,-0.6883934736251831,-1.3097361326217651,0.1255198121070861
2024-12-04 22:05:58.955758000,0.303758056640625,-0.7964694499969482,-0.9383887648582458,-0.1759328097105026
2024-12-04 22:05:58.965834000,0.313833984375,-0.7325117588043213,-0.4431430995464325,-0.4505595862865448
2024-12-04 22:05:58.975910000,0.323909912109375,-0.6937771439552307,-0.3185169100761413,-0.5737686157226562
2024-12-04 22:05:58.985986000,0.333986083984375,-0.7295807003974915,-0.06574697047472,-0.7460975050926208
2024-12-04 22:05:58.996062000,0.34406201171875,-0.6441739797592163,-0.0435130111873149,-0.8556523323059082
2024-12-04 22:05:59.006138000,0.35413818359375,-0.3154232501983642,-0.1988032609224319,-0.7635911107063293
2024-12-04 22:05:59.016214000,0.364214111328125,-0.059970524162054,-0.1365778744220733,-0.5945255756378174
2024-12-04 22:05:59.026290000,0.3742900390625,-0.091742567718029,-0.1252517104148864,-0.4233098924160003
2024-12-04 22:05:59.036366000,0.384365966796875,-0.1934512704610824,-0.1475054919719696,-0.1525169312953949
2024-12-04 22:05:59.046442000,0.39444189453125,-0.3003881275653839,-0.1709178686141967,0.0270981099456548
2024-12-04 22:05:59.056518100,0.40451806640625,-0.4733473062515259,-0.1993836760520935,0.0293776057660579
2024-12-04 22:05:59.066594000,0.414593994140625,-0.5439301133155823,-0.1592996418476104,-0.1453627794981002
2024-12-04 22:05:59.076670000,0.424669921875,-0.5146587491035461,-0.0568698868155479,-0.4398965537548065
2024-12-04 22:05:59.086745900,0.434745849609375,-0.4417046308517456,0.178708016872406,-0.7262724041938782
2024-12-04 22:05:59.096822000,0.444822021484375,-0.3813467621803283,0.4487427175045013,-0.9081858396530152
2024-12-04 22:05:59.106898200,0.454898193359375,-0.3058546781539917,0.6185421347618103,-1.0043834447860718
2024-12-04 22:05:59.116974000,0.46497412109375,-0.1748923808336258,0.7495991587638855,-1.0167325735092163
2024-12-04 22:05:59.127050000,0.475050048828125,0.0006951540708541,0.8760452270507812,-0.960112690925598
2024-12-04 22:05:59.137126000,0.4851259765625,0.0652872696518898,1.001837968826294,-0.8437155485153198
2024-12-04 22:05:59.147202000,0.4952021484375,0.0745478793978691,1.0985088348388672,-0.68231201171875
2024-12-04 22:05:59.157278000,0.50527783203125,0.0747753158211708,1.1356351375579834,-0.514481246471405
2024-12-04 22:05:59.167354000,0.51535400390625,0.1636431366205215,1.2173640727996826,-0.3665900230407715
2024-12-04 22:05:59.177430000,0.525429931640625,0.4165674746036529,1.0729031562805176,-0.1071584224700927
2024-12-04 22:05:59.187506000,0.535505859375,0.6733260154724121,0.8649342656135559,0.1584905683994293
2024-12-04 22:05:59.197582000,0.54558203125,0.7713842988014221,0.5799294114112854,0.3950971662998199
2024-12-04 22:05:59.207658000,0.555657958984375,0.8179786801338196,0.2362034767866134,0.524614155292511
2024-12-04 22:05:59.217734100,0.565734130859375,0.8560628890991211,-0.0231058597564697,0.5861720442771912
2024-12-04 22:05:59.227809800,0.575809814453125,0.8349674940109253,-0.2692905962467193,0.5699238777160645
2024-12-04 22:05:59.237886000,0.585885986328125,0.7525990605354309,-0.4208000600337982,0.5015003681182861
2024-12-04 22:05:59.247962000,0.595962158203125,0.5433931350708008,-0.5390534400939941,0.4652182459831238
2024-12-04 22:05:59.258038000,0.6060380859375,0.3038893043994903,-0.5103365778923035,0.4487782120704651
2024-12-04 22:05:59.268114200,0.6161142578125,0.1249176859855651,-0.2942698299884796,0.4388275742530823
2024-12-04 22:05:59.278190000,0.626190185546875,-0.0319991670548915,0.0132402963936328,0.4619468748569488
2024-12-04 22:05:59.288266000,0.636265869140625,-0.1183875873684883,0.347621738910675,0.4824715852737427
2024-12-04 22:05:59.298342000,0.646341796875,-0.1094268709421157,0.60970139503479,0.4821790158748626
2024-12-04 22:05:59.308418000,0.65641796875,-0.0285037886351346,0.6677857637405396,0.4974112510681152
2024-12-04 22:05:59.318494200,0.666494140625,0.0752177014946937,0.523693323135376,0.5453972220420837
2024-12-04 22:05:59.328570000,0.676570068359375,0.1027878150343895,0.2410807758569717,0.6089823246002197
2024-12-04 22:05:59.338646000,0.68664599609375,0.086687721312046,-0.0307714939117431,0.723593533039093
2024-12-04 22:05:59.348722000,0.696721923828125,-0.0293731037527322,-0.2572965025901794,0.8254114985466003
2024-12-04 22:05:59.358798000,0.706798095703125,-0.0477300211787223,-0.2695456445217132,0.9217300415039062
2024-12-04 22:05:59.368874000,0.7168740234375,-0.0033250069245696,-0.2368004918098449,0.9082041382789612
2024-12-04 22:05:59.378950100,0.7269501953125,0.0008534262888133,-0.1482069045305252,0.8099315762519836
2024-12-04 22:05:59.389026000,0.737026123046875,0.0361581519246101,0.0356667935848236,0.6683235764503479
2024-12-04 22:05:59.399102000,0.74710205078125,0.0891241505742073,0.1469563692808151,0.551238477230072
2024-12-04 22:05:59.409178000,0.75717822265625,0.1435732841491699,0.1452455520629882,0.4925754368305206
2024-12-04 22:05:59.419254000,0.76725390625,0.1991042047739029,0.0189786255359649,0.4984546303749084
2024-12-04 22:05:59.429330200,0.777330078125,0.2422996163368225,-0.180127814412117,0.5267350077629089
2024-12-04 22:05:59.439405800,0.78740576171875,0.1827566474676132,-0.3630661964416504,0.6345160603523254
2024-12-04 22:05:59.449482000,0.79748193359375,0.0932193100452423,-0.461383193731308,0.7638381123542786
2024-12-04 22:05:59.459558000,0.807557861328125,-0.0238500647246837,-0.5204523205757141,0.8905434608459473
2024-12-04 22:05:59.469634000,0.817634033203125,-0.091928981244564,-0.5896742939949036,0.9427352547645568
2024-12-04 22:05:59.479711000,0.8277109375,-0.0819730162620544,-0.6348865628242493,0.905256450176239
2024-12-04 22:05:59.489787100,0.837787109375,-0.0503050982952117,-0.661885678768158,0.7797885537147522
2024-12-04 22:05:59.499862800,0.84786279296875,-0.0019715065136551,-0.624850332736969,0.6036446690559387
2024-12-04 22:05:59.509939000,0.85793896484375,0.0020602536387741,-0.5373058319091797,0.4420767426490783
2024-12-04 22:05:59.520015000,0.86801513671875,-0.048297494649887,-0.4556060135364532,0.3395067155361175
2024-12-04 22:05:59.530091000,0.878091064453125,-0.1044396013021469,-0.4136364758014679,0.2822413146495819
2024-12-04 22:05:59.540167200,0.888167236328125,-0.1607408374547958,-0.3953714966773987,0.2523269057273865
2024-12-04 22:05:59.550242800,0.898242919921875,-0.2108290344476699,-0.3653539419174194,0.2449355572462082
2024-12-04 22:05:59.560319000,0.908319091796875,-0.2526186406612396,-0.2735118269920349,0.2727475166320801
2024-12-04 22:05:59.570395000,0.918394775390625,-0.2869299948215484,-0.1395875662565231,0.3028489649295807
2024-12-04 22:05:59.580471000,0.928470947265625,-0.3280636668205261,-0.0338963381946086,0.3362915217876434
2024-12-04 22:05:59.590547200,0.938547119140625,-0.3464693129062652,0.0717627108097076,0.3551845252513885
2024-12-04 22:05:59.600623000,0.948623046875,-0.3527325987815857,0.1594161689281463,0.345950037240982
2024-12-04 22:05:59.610699000,0.958698974609375,-0.3461838960647583,0.1948180943727493,0.2844107747077942
2024-12-04 22:05:59.620775000,0.96877490234375,-0.3859667181968689,0.2899981439113617,0.1944710314273834
2024-12-04 22:05:59.630851000,0.97885107421875,-0.4812961518764496,0.3760198354721069,0.0342949405312538
2024-12-04 22:05:59.640927000,0.988927001953125,-0.6164534091949463,0.2911292910575866,-0.2674251198768616
2024-12-04 22:05:59.651003100,0.999003173828125,-0.6899361610412598,0.2599993348121643,-0.5393788814544678
2024-12-04 22:05:59.661079000,1.0090791015625,-0.8762596249580383,0.5663029551506042,-0.6934037804603577
2024-12-04 22:05:59.671155000,1.019155029296875,-1.174087405204773,0.9328373074531556,-0.7510790824890137
2024-12-04 22:05:59.681231000,1.029231201171875,-1.4340492486953735,1.244754195213318,-0.6933469176292419
2024-12-04 22:05:59.691307000,1.03930712890625,-1.6457390785217283,1.346965789794922,-0.5623761415481567
2024-12-04 22:05:59.701383200,1.049383056640625,-1.7681481838226318,1.29217267036438,-0.3728911578655243
2024-12-04 22:05:59.711458800,1.059458740234375,-1.7930173873901367,1.040955662727356,-0.1728512644767761
2024-12-04 22:05:59.721535000,1.069534912109375,-1.7343627214431765,0.596748948097229,0.058024127036333
2024-12-04 22:05:59.731611100,1.079611083984375,-1.6221566200256348,0.053789559751749,0.3613134324550628
2024-12-04 22:05:59.741687000,1.08968701171875,-1.5304912328720093,-0.4556557834148407,0.7034581899642944
2024-12-04 22:05:59.751763200,1.09976318359375,-1.5329560041427612,-0.806166410446167,1.030337691307068
2024-12-04 22:05:59.761838800,1.1098388671875,-1.6170296669006348,-0.9785381555557252,1.3185904026031494
2024-12-04 22:05:59.771915000,1.1199150390625,-1.7194782495498655,-1.0080012083053589,1.4618844985961914
2024-12-04 22:05:59.781991000,1.129990966796875,-1.834211349487305,-0.9328730702400208,1.410658359527588
2024-12-04 22:05:59.792067000,1.140067138671875,-1.9948111772537231,-0.8739191889762878,1.1694327592849731
2024-12-04 22:05:59.802143000,1.15014306640625,-2.242716312408448,-0.7836703658103943,0.8676214814186096
2024-12-04 22:05:59.812219000,1.160218994140625,-2.47395658493042,-0.696490466594696,0.5566646456718445
2024-12-04 22:05:59.822295000,1.170294921875,-2.6236367225646973,-0.5796729922294617,0.2997583448886871
2024-12-04 22:05:59.832371000,1.180370849609375,-2.679671049118042,-0.5517092347145081,0.1908473223447799
2024-12-04 22:05:59.842447000,1.190447021484375,-2.608976364135742,-0.5181061029434204,0.2433384358882904
2024-12-04 22:05:59.852523000,1.20052294921875,-2.4799482822418213,-0.4714238345623016,0.4458127319812774
2024-12-04 22:05:59.862599200,1.21059912109375,-2.275233507156372,-0.5274192690849304,0.7408480048179626
2024-12-04 22:05:59.872674800,1.2206748046875,-2.093949556350708,-0.6400355696678162,1.05049729347229
2024-12-04 22:05:59.882751000,1.2307509765625,-1.9810751676559448,-0.840297520160675,1.3001081943511963
2024-12-04 22:05:59.892827100,1.2408271484375,-1.976205825805664,-1.2161356210708618,1.480791449546814
2024-12-04 22:05:59.902903000,1.250903076171875,-2.026495218276977,-1.5756962299346924,1.5232000350952148
2024-12-04 22:05:59.912979200,1.260979248046875,-2.316066026687622,-1.9268114566802976,1.3844573497772217
2024-12-04 22:05:59.923055000,1.27105517578125,-2.2353320121765137,-1.839024782180786,1.065882682800293
2024-12-04 22:05:59.933131000,1.281131103515625,-2.3446547985076904,-1.814809799194336,0.6374227404594421
2024-12-04 22:05:59.943207000,1.29120703125,-2.611037015914917,-1.6599664688110352,0.2929017841815948
2024-12-04 22:05:59.953283000,1.301282958984375,-2.511062860488892,-1.0932153463363647,0.0735779553651809
2024-12-04 22:05:59.963359200,1.311359130859375,-2.4432079792022705,-1.1429126262664795,0.0045501701533794
2024-12-04 22:05:59.973435100,1.32143505859375,-2.441690444946289,-1.0775535106658936,0.0595566965639591
2024-12-04 22:05:59.983511000,1.331510986328125,-2.3787827491760254,-0.9357911944389344,0.1992701590061187
2024-12-04 22:05:59.993587000,1.3415869140625,-2.289809226989746,-0.8096058368682861,0.4338728189468384
2024-12-04 22:06:00.003663000,1.3516630859375,-2.242189407348633,-0.78985995054245,0.6865243315696716
2024-12-04 22:06:00.013739000,1.361739013671875,-2.286066770553589,-0.9305792450904846,0.9065200686454772
2024-12-04 22:06:00.023815200,1.371815185546875,-2.321895360946656,-1.1187632083892822,1.03877592086792
2024-12-04 22:06:00.033891000,1.38189111328125,-2.308998107910156,-1.3439007997512815,1.0619417428970337
2024-12-04 22:06:00.043967000,1.391967041015625,-2.13132643699646,-1.5978020429611206,1.0265710353851318
2024-12-04 22:06:00.054043100,1.402043212890625,-1.889994621276856,-1.865321397781372,1.0453076362609863
2024-12-04 22:06:00.064119000,1.412119140625,-1.6347712278366089,-2.2304224967956543,1.2101119756698608
2024-12-04 22:06:00.074195200,1.4221953125,-1.3712886571884155,-2.3861002922058105,1.4598394632339478
2024-12-04 22:06:00.084270800,1.432270751953125,-1.207916021347046,-2.2700271606445312,1.6241967678070068
2024-12-04 22:06:00.094347000,1.442346923828125,-1.140350103378296,-2.0830955505371094,1.583152174949646
2024-12-04 22:06:00.104423200,1.452423095703125,-1.0916441679000854,-1.89670479297638,1.3691978454589844
2024-12-04 22:06:00.114499000,1.4624990234375,-1.198072910308838,-1.7619699239730835,1.1721748113632202
2024-12-04 22:06:00.124575200,1.4725751953125,-0.6681874990463257,-2.0177807807922363,1.0342878103256226
2024-12-04 22:06:00.134651000,1.48265087890625,-0.5812691450119019,-2.145321846008301,0.8621211051940918
2024-12-04 22:06:00.144727000,1.49272705078125,-0.4876392185688019,-2.25600004196167,0.6902813911437988
2024-12-04 22:06:00.154803000,1.502802978515625,-0.6324544548988342,-2.3811988830566406,0.6342650055885315
2024-12-04 22:06:00.164879000,1.512879150390625,-0.7423738837242126,-2.4121334552764893,0.6237019300460815
2024-12-04 22:06:00.174955000,1.522955078125,-0.5541285872459412,-2.602803468704224,0.6494421362876892
2024-12-04 22:06:00.185031200,1.53303125,-0.0673768445849418,-2.992896318435669,0.8510860800743103
2024-12-04 22:06:00.195107000,1.543107177734375,0.4963986277580261,-3.3641371726989746,1.2107465267181396
2024-12-04 22:06:00.205183000,1.553182861328125,0.868973970413208,-3.385408639907837,1.567850112915039
2024-12-04 22:06:00.215259100,1.563259033203125,0.9396971464157104,-2.9125304222106934,1.640316605567932
2024-12-04 22:06:00.225335000,1.5733349609375,0.8705886602401733,-2.1551268100738525,1.3561155796051023
2024-12-04 22:06:00.235411200,1.5834111328125,0.8837624788284302,-1.249465823173523,0.85048907995224
2024-12-04 22:06:00.245486800,1.59348681640625,1.0127063989639282,-0.5136081576347351,0.3762585818767547
2024-12-04 22:06:00.255563000,1.60356298828125,1.2538026571273804,-0.1934437602758407,0.2271905541419983
2024-12-04 22:06:00.265639200,1.61363916015625,1.516097903251648,-0.1087826564908027,0.3827958106994629
2024-12-04 22:06:00.275715000,1.623715087890625,1.651768445968628,-0.0190530382096767,0.6075133681297302
2024-12-04 22:06:00.285791200,1.633791259765625,1.6043893098831177,0.2004545629024505,0.7285516858100891
2024-12-04 22:06:00.295867000,1.643866943359375,1.4990237951278689,0.5910859704017639,0.6390575170516968
2024-12-04 22:06:00.305943000,1.653943115234375,1.4610722064971924,1.1157400608062744,0.3346360325813293
2024-12-04 22:06:00.316019000,1.66401904296875,1.5269795656204224,1.6295636892318726,-0.0978328287601471
2024-12-04 22:06:00.326095000,1.67409521484375,1.6819417476654053,1.8119572401046755,-0.4556089341640472
2024-12-04 22:06:00.336171300,1.684171142578125,1.975172638893128,1.5988646745681765,-0.6017698645591736
2024-12-04 22:06:00.346247000,1.694246826171875,2.2699341773986816,1.1678259372711182,-0.5465260148048401
2024-12-04 22:06:00.356323000,1.704322998046875,2.4132254123687744,0.7365767955780029,-0.3913553655147552
2024-12-04 22:06:00.366399000,1.71439892578125,2.438311815261841,0.5434325933456421,-0.2003849446773529
2024-12-04 22:06:00.376475100,1.72447509765625,2.344907760620117,0.6124712824821472,-0.087720438838005
2024-12-04 22:06:00.386551000,1.734551025390625,2.160780668258667,0.8781059980392456,-0.0857260972261428
2024-12-04 22:06:00.396627000,1.744626953125,2.0097687244415283,1.1250218152999878,-0.1928751915693283
2024-12-04 22:06:00.406703000,1.754703125,1.8757315874099727,1.2411397695541382,-0.3754177391529083
2024-12-04 22:06:00.416779000,1.764779052734375,1.6878836154937744,1.233176350593567,-0.581542432308197
2024-12-04 22:06:00.426855200,1.774855224609375,1.4727123975753784,1.194333553314209,-0.7535600066184998
2024-12-04 22:06:00.436931000,1.78493115234375,1.3045566082000732,1.2145988941192627,-0.8878456950187683
2024-12-04 22:06:00.447007000,1.795007080078125,1.174403190612793,1.2716211080551147,-0.9860857129096984
2024-12-04 22:06:00.457083000,1.805082763671875,1.1014392375946045,1.351848602294922,-1.0581921339035034
2024-12-04 22:06:00.467159000,1.815158935546875,1.036859154701233,1.4487465620040894,-1.1108824014663696
2024-12-04 22:06:00.477235200,1.825235107421875,0.94383305311203,1.4576468467712402,-1.086251139640808
2024-12-04 22:06:00.487311000,1.83531103515625,0.8455468416213989,1.3846595287322998,-0.9670101404190063
2024-12-04 22:06:00.497387300,1.84538720703125,0.7475425601005554,1.2719851732254028,-0.812757670879364
2024-12-04 22:06:00.507463000,1.855462890625,0.63951575756073,1.152496099472046,-0.7013829946517944
2024-12-04 22:06:00.517539000,1.8655390625,0.544022798538208,1.018839955329895,-0.6329179406166077
2024-12-04 22:06:00.527615000,1.875614990234375,0.4934671521186828,0.918212890625,-0.5776306390762329
2024-12-04 22:06:00.537691100,1.885691162109375,0.4654187262058258,0.9071770310401917,-0.4967659115791321
2024-12-04 22:06:00.547767000,1.89576708984375,0.4071317613124847,0.8533540964126587,-0.3877717852592468
2024-12-04 22:06:00.557843000,1.905843017578125,0.3336769640445709,0.7369617223739624,-0.2705945372581482
2024-12-04 22:06:00.567919000,1.915919189453125,0.295628011226654,0.5681154131889343,-0.1993702799081802
2024-12-04 22:06:00.577995000,1.9259951171875,0.3354372084140777,0.4220850169658661,-0.2181626111268997
2024-12-04 22:06:00.588071200,1.9360712890625,0.4039226472377777,0.1697201281785965,-0.3053455948829651
2024-12-04 22:06:00.598147000,1.94614697265625,0.3828122913837433,0.2349486649036407,-0.278443694114685
2024-12-04 22:06:00.608223000,1.956222900390625,0.366281658411026,0.1527173966169357,-0.222824290394783
2024-12-04 22:06:00.618299000,1.966298828125,0.351029485464096,0.1538076996803283,-0.0371585637331008
2024-12-04 22:06:00.628375000,1.976375,0.3430816829204559,0.1307446509599685,0.1602478921413421
2024-12-04 22:06:00.638451200,1.986451171875,0.3416934013366699,0.1347590982913971,0.2909025549888611
2024-12-04 22:06:00.648527000,1.996527099609375,0.3706532716751098,0.1386185884475708,0.3381782472133636
2024-12-04 22:06:00.658603000,2.00660302734375,0.4079673588275909,0.140565887093544,0.319656491279602
2024-12-04 22:06:00.668679000,2.016678955078125,0.4790203869342804,0.0639124065637588,0.2796236574649811
2024-12-04 22:06:00.678755000,2.026755126953125,0.5417625904083252,0.3012527823448181,0.2513307631015777
2024-12-04 22:06:00.688831000,2.0368310546875,0.5943458676338196,0.1717616319656372,0.1550356745719909
2024-12-04 22:06:00.698907100,2.0469072265625,0.6445012092590332,0.0114012509584426,0.142630934715271
2024-12-04 22:06:00.708983000,2.056983154296875,0.6420679688453674,-0.1303933411836624,0.1804179698228836
2024-12-04 22:06:00.719059000,2.067058837890625,0.6459987759590149,-0.1941275745630264,0.2521060109138489
2024-12-04 22:06:00.729135000,2.077135009765625,0.6851575970649719,-0.2271417677402496,0.2943651974201202
2024-12-04 22:06:00.739211000,2.0872109375,0.7625874280929565,-0.1957300454378128,0.3005189597606659
2024-12-04 22:06:00.749287200,2.097287109375,0.884082019329071,-0.120025560259819,0.2692956030368805
2024-12-04 22:06:00.759363000,2.107363037109375,1.013882398605347,-0.067570611834526,0.184110939502716
2024-12-04 22:06:00.769439000,2.11743896484375,1.097259283065796,-0.0318850874900817,0.0323428437113761
2024-12-04 22:06:00.779515100,2.12751513671875,1.1193848848342896,-0.0925052911043167,-0.178075909614563
2024-12-04 22:06:00.789591000,2.137591064453125,1.0538800954818726,-0.2118903547525406,-0.3783899545669555
2024-12-04 22:06:00.799667200,2.147667236328125,0.904787540435791,-0.3111588954925537,-0.5270519256591797
2024-12-04 22:06:00.809743000,2.1577431640625,0.7164568901062012,-0.4197612404823303,-0.6414707899093628
2024-12-04 22:06:00.819819000,2.167819091796875,0.5982750654220581,-0.4879634380340576,-0.7236841917037964
2024-12-04 22:06:00.829895000,2.17789501953125,0.5591316223144531,-0.4726955890655517,-0.6657906174659729
2024-12-04 22:06:00.839971000,2.18797119140625,0.6317805051803589,-0.3438683748245239,-0.3934637308120727
2024-12-04 22:06:00.850047200,2.198047119140625,0.8283726572990417,-0.2642826437950134,0.0315115228295326
2024-12-04 22:06:00.860123100,2.208123046875,1.0888899564743042,-0.2376486510038375,0.4620786309242248
2024-12-04 22:06:00.870199300,2.21819921875,1.3415155410766602,-0.1171918213367462,0.6802501082420349
2024-12-04 22:06:00.880275200,2.228275146484375,1.5920354127883911,0.0151462443172931,0.7073150277137756
2024-12-04 22:06:00.890351000,2.23835107421875,1.7735141515731812,0.0853427723050117,0.6748120188713074
2024-12-04 22:06:00.900427000,2.248427001953125,1.828337550163269,0.0290755033493042,0.6737582087516785
2024-12-04 22:06:00.910503200,2.258503173828125,1.8056095838546755,-0.0879456251859664,0.7514516115188599
2024-12-04 22:06:00.920579000,2.2685791015625,1.6712371110916138,-0.2962644696235657,0.8673917651176453
2024-12-04 22:06:00.930655200,2.2786552734375,1.4617867469787598,-0.4480048716068268,0.9222210049629213
2024-12-04 22:06:00.940731100,2.288731201171875,1.2735068798065186,-0.4678880274295807,0.8219647407531738
2024-12-04 22:06:00.950807000,2.29880712890625,1.0925452709197998,-0.3337776362895965,0.5427428483963013
2024-12-04 22:06:00.960883200,2.30888330078125,0.9323432445526124,-0.1033644080162048,0.1106572076678276
2024-12-04 22:06:00.970959000,2.318958984375,0.7729356288909912,0.1340128034353256,-0.3236574232578277
2024-12-04 22:06:00.981035300,2.32903515625,0.6040595173835754,0.2850228548049927,-0.628154993057251
2024-12-04 22:06:00.991111200,2.339111083984375,0.4403982758522033,0.3728385269641876,-0.7042983174324036
2024-12-04 22:06:01.001187000,2.34918701171875,0.3153886795043945,0.3962157666683197,-0.6034273505210876
2024-12-04 22:06:01.011263200,2.35926318359375,0.2340563237667083,0.3132146894931793,-0.4054354429244995
2024-12-04 22:06:01.021339100,2.369339111328125,0.1972509175539016,0.2044735699892044,-0.210182324051857
2024-12-04 22:06:01.031415300,2.379415283203125,0.1806086003780365,0.1929350644350052,-0.0617351233959198
2024-12-04 22:06:01.041491000,2.389490966796875,0.1778053641319275,0.273958295583725,0.0416085757315158
2024-12-04 22:06:01.051567000,2.399567138671875,0.1547375619411468,0.3944213688373565,0.1107771843671798
2024-12-04 22:06:01.061643000,2.40964306640625,0.1168410405516624,0.4437993168830871,0.1507898420095443
2024-12-04 22:06:01.071719200,2.41971923828125,0.0668935626745224,0.4125188291072845,0.1844531893730163
2024-12-04 22:06:01.081795300,2.42979541015625,0.0023419950157403,0.3148814737796783,0.1990150958299636
2024-12-04 22:06:01.091871200,2.439871337890625,-0.031287208199501,0.1909756809473037,0.1841519176959991
2024-12-04 22:06:01.101947100,2.449947021484375,-0.0592850148677825,0.1155299171805381,0.1411876827478408
2024-12-04 22:06:01.112023000,2.46002294921875,-0.0958818569779396,0.0655290335416793,0.0737982243299484
2024-12-04 22:06:01.122099200,2.47009912109375,-0.121879905462265,0.0912234783172607,-0.0154134146869182
2024-12-04 22:06:01.132175000,2.480175048828125,-0.1389835625886917,0.1982510387897491,-0.1367105394601822
2024-12-04 22:06:01.142251300,2.490251220703125,-0.1705651879310608,0.2650687098503113,-0.2599453926086426
2024-12-04 22:06:01.152327200,2.5003271484375,-0.2023565918207168,0.2967063784599304,-0.3362533748149872
2024-12-04 22:06:01.162403000,2.510403076171875,-0.2221382856369018,0.3268312513828277,-0.3382384777069092
2024-12-04 22:06:01.172479200,2.520479248046875,-0.3023985922336578,0.3316008448600769,-0.25602787733078
2024-12-04 22:06:01.182555100,2.53055517578125,-0.4468282163143158,0.353740245103836,-0.1299341171979904
2024-12-04 22:06:01.192631300,2.54063134765625,-0.5865241885185242,0.3460921943187713,-0.0350512228906154
2024-12-04 22:06:01.202707000,2.55070703125,-0.6387943029403687,0.2787626683712005,0.0186839122325181
2024-12-04 22:06:01.212783000,2.560783203125,-0.6279301643371582,0.2085614651441574,0.023834865540266
2024-12-04 22:06:01.222859300,2.570859375,-0.5465388894081116,0.1238172873854637,-0.0304906889796257
2024-12-04 22:06:01.232935200,2.58093505859375,-0.4332199394702911,-0.0783290639519691,-0.1064903661608696
2024-12-04 22:06:01.243011300,2.59101123046875,-0.3787787854671478,0.1505195647478103,-0.0649943202733993
2024-12-04 22:06:01.253087000,2.6010869140625,-0.35964035987854,0.0298631861805915,-0.0859215185046196
2024-12-04 22:06:01.263163100,2.6111630859375,-0.3363373875617981,-0.175667330622673,-0.0235819760710001
2024-12-04 22:06:01.273239000,2.621239013671875,-0.4210425317287445,-0.4452884197235107,0.1139728799462318
2024-12-04 22:06:01.283315200,2.631315185546875,-0.5521467328071594,-0.2696934342384338,0.30436971783638
2024-12-04 22:06:01.293391000,2.64139111328125,-0.5458964705467224,-0.2717314958572387,0.3193162679672241
2024-12-04 22:06:01.303467000,2.651467041015625,-0.3002888560295105,-0.5273441076278687,0.2442082166671753
2024-12-04 22:06:01.313543200,2.661543212890625,-0.0578618384897708,-0.2841351628303528,0.2204110026359558
2024-12-04 22:06:01.323619000,2.671619140625,0.0835032761096954,-0.1189025193452835,0.0401741191744804
2024-12-04 22:06:01.333695200,2.6816953125,0.2576095461845398,-0.1211890503764152,-0.1149177253246307
2024-12-04 22:06:01.343771100,2.691771240234375,0.3615250289440155,-0.1724064350128173,-0.1382832378149032
2024-12-04 22:06:01.353847000,2.701846923828125,0.4031244218349457,-0.1844784915447235,-0.1079771518707275
2024-12-04 22:06:01.363923200,2.711923095703125,0.4239040315151214,-0.1640869379043579,-0.0412476547062397
2024-12-04 22:06:01.373999000,2.7219990234375,0.448866993188858,-0.1111253052949905,0.028072353452444
2024-12-04 22:06:01.384075300,2.7320751953125,0.4889292120933532,-0.0328685864806175,-0.0108452178537845
2024-12-04 22:06:01.394151200,2.742151123046875,0.5042192935943604,-0.0482355654239654,-0.2340267896652221
2024-12-04 22:06:01.404227300,2.752227294921875,0.4864679872989654,-0.0866979956626892,-0.5713441371917725
2024-12-04 22:06:01.414303000,2.762302978515625,0.4484327137470245,-0.069770947098732,-0.905523717403412
2024-12-04 22:06:01.424379100,2.772379150390625,0.4195656478404999,0.0023759494069963,-1.0838757753372192
2024-12-04 22:06:01.434455000,2.782455078125,0.3812506794929504,0.1081823855638504,-1.0748628377914429
2024-12-04 22:06:01.444531200,2.79253125,0.40216264128685,0.2327261716127395,-0.9734829664230348
2024-12-04 22:06:01.454607400,2.802607421875,0.4675502181053161,0.3870453834533691,-0.840470016002655
2024-12-04 22:06:01.464683000,2.81268310546875,0.5418534874916077,0.4956818222999573,-0.7204756736755371
2024-12-04 22:06:01.474759200,2.82275927734375,0.6409298777580261,0.5423269271850586,-0.5989429354667664
2024-12-04 22:06:01.484835000,2.8328349609375,0.7104786038398743,0.4551438689231872,-0.4794666171073913
2024-12-04 22:06:01.494911200,2.8429111328125,0.7222229838371277,0.3041635155677795,-0.3534762561321258
2024-12-04 22:06:01.504987100,2.852987060546875,0.7268108129501343,0.1300103366374969,-0.2572948634624481
2024-12-04 22:06:01.515063000,2.86306298828125,0.693347692489624,0.0019037234596908,-0.231785774230957
2024-12-04 22:06:01.525139200,2.87313916015625,0.6539536714553833,-0.0324129723012447,-0.2879044413566589
2024-12-04 22:06:01.535214000,2.883214111328125,0.6173645853996277,-0.0109268315136432,-0.3433802127838135
2024-12-04 22:06:01.545290200,2.893290283203125,0.5789018869400024,0.0481639206409454,-0.381184846162796
2024-12-04 22:06:01.555366100,2.9033662109375,0.5331190824508667,0.1468256264925003,-0.3801391124725342
2024-12-04 22:06:01.565442000,2.913442138671875,0.5051298141479492,0.2114967703819275,-0.3367343842983246
2024-12-04 22:06:01.575518200,2.923518310546875,0.4914682507514953,0.2038892656564712,-0.2648150622844696
2024-12-04 22:06:01.585594000,2.933593994140625,0.4579923152923584,0.1745159327983856,-0.1686794757843017
2024-12-04 22:06:01.595670300,2.943670166015625,0.4092929363250732,0.1196416467428207,-0.0859460979700088
2024-12-04 22:06:01.605746000,2.953745849609375,0.3812929987907409,0.0780755653977394,-0.0174152366816997
2024-12-04 22:06:01.615822000,2.963822021484375,0.3774271011352539,0.0156954638659954,0.0257383771240711
2024-12-04 22:06:01.625898200,2.973898193359375,0.3866704106330871,-0.030104249715805,0.0970921888947486
2024-12-04 22:06:01.635974100,2.98397412109375,0.4169881045818329,-0.0245713982731103,0.2215651571750641
2024-12-04 22:06:01.646050300,2.99405029296875,0.4233352243900299,-0.0850461944937706,0.4368218183517456
2024-12-04 22:06:01.656126200,3.004126220703125,0.3836676776409149,-0.1485983431339264,0.6546686887741089
2024-12-04 22:06:01.666202000,3.0142021484375,0.3580909371376037,-0.164630576968193,0.7561585307121277
2024-12-04 22:06:01.676278000,3.024278076171875,0.370346337556839,-0.1283669769763946,0.7441613674163818
2024-12-04 22:06:01.686354200,3.034354248046875,0.4059959650039673,-0.0453943386673927,0.6514915823936462
2024-12-04 22:06:01.696430000,3.04443017578125,0.4573731124401092,0.0334436483681201,0.5097718834877014
2024-12-04 22:06:01.706506200,3.05450634765625,0.4897164106369018,0.0638044849038124,0.3756172657012939
2024-12-04 22:06:01.716582100,3.06458203125,0.4997142851352691,0.113496646285057,0.2856788039207458
2024-12-04 22:06:01.726658000,3.074657958984375,0.4732288718223572,0.1353372186422348,0.2563366293907165
2024-12-04 22:06:01.736734200,3.084734130859375,0.3805534243583679,0.1855182945728302,0.3359501659870147
2024-12-04 22:06:01.746810000,3.09481005859375,0.251846045255661,0.2448322176933288,0.4544541537761688
2024-12-04 22:06:01.756886300,3.10488623046875,0.1580422222614288,0.3031694293022156,0.5771978497505188
2024-12-04 22:06:01.766962200,3.114962158203125,0.141496792435646,0.3356746435165405,0.6491138339042664
2024-12-04 22:06:01.777038000,3.1250380859375,0.1746401637792587,0.2809106409549713,0.6717358827590942
2024-12-04 22:06:01.787114200,3.1351142578125,0.244870126247406,0.2115914970636367,0.6904104948043823
2024-12-04 22:06:01.797190100,3.145190185546875,0.2981423437595367,0.0571185052394866,0.715267539024353
2024-12-04 22:06:01.807266300,3.155266357421875,0.2898442149162292,-0.1082179918885231,0.7315447926521301
2024-12-04 22:06:01.817342000,3.165342041015625,0.2341026067733764,-0.2407291084527969,0.7399998307228088
2024-12-04 22:06:01.827418000,3.175418212890625,0.1258610785007476,-0.3594083487987518,0.7135115265846252
2024-12-04 22:06:01.837494000,3.185493896484375,0.0291282050311565,-0.3553489744663238,0.5722029209136963
2024-12-04 22:06:01.847569200,3.195569091796875,-0.0440525338053703,-0.1729621291160583,0.3207741677761078
2024-12-04 22:06:01.857645000,3.20564501953125,-0.0995951741933822,0.1016986295580864,-0.0218874253332614
2024-12-04 22:06:01.867721000,3.215720947265625,-0.1821262687444687,0.4017846882343292,-0.383155882358551
2024-12-04 22:06:01.877796600,3.225796630859375,-0.2827105522155761,0.6008204221725464,-0.7261458039283752
2024-12-04 22:06:01.887872800,3.235872802734375,-0.4078258574008941,0.7178932428359985,-0.9555984139442444
2024-12-04 22:06:01.897948700,3.24594873046875,-0.5439590811729431,0.7228314876556396,-1.0626842975616455
2024-12-04 22:06:01.908024800,3.25602490234375,-0.6534214019775391,0.6187412738800049,-1.0903865098953247
2024-12-04 22:06:01.918100700,3.266100830078125,-0.6988009810447693,0.4928643703460693,-1.019834041595459
2024-12-04 22:06:01.928177000,3.276177001953125,-0.6920128464698792,0.4960700273513794,-0.9881751537322998
2024-12-04 22:06:01.938252800,3.286252685546875,-0.6113251447677612,0.6397179961204529,-0.8350745439529419
2024-12-04 22:06:01.948328700,3.29632861328125,-0.5672810077667236,0.7600276470184326,-0.7877331376075745
2024-12-04 22:06:01.958404900,3.30640478515625,-0.4538401365280151,0.94573312997818,-0.7119312882423401
2024-12-04 22:06:01.968480800,3.316480712890625,-0.3055726289749145,1.0881129503250122,-0.6310396194458008
2024-12-04 22:06:01.978557000,3.326556884765625,-0.1562512665987014,1.1377443075180054,-0.5344546437263489
2024-12-04 22:06:01.988632600,3.336632568359375,-0.0235129222273826,1.0494579076766968,-0.4420522451400757
2024-12-04 22:06:01.998708700,3.346708740234375,0.0673333629965782,0.8283434510231018,-0.3439352810382843
2024-12-04 22:06:02.008785000,3.356784912109375,0.1342772394418716,0.4998894035816192,-0.2396392226219177
2024-12-04 22:06:02.018860800,3.36686083984375,0.1448175609111786,0.1724458187818527,-0.0966553315520286
2024-12-04 22:06:02.028937000,3.37693701171875,0.1327571719884872,-0.0461898557841777,0.0862838625907898
2024-12-04 22:06:02.039012600,3.3870126953125,0.1202207431197166,-0.1221286505460739,0.2480481564998626
2024-12-04 22:06:02.049088800,3.3970888671875,0.1267295032739639,-0.0852625221014022,0.3265520334243774
2024-12-04 22:06:02.059164700,3.40716455078125,0.1514768600463867,-0.0360955148935318,0.3204103112220764
2024-12-04 22:06:02.069239800,3.41723974609375,0.1245333850383758,-0.0043538329191505,0.2434225678443908
2024-12-04 22:06:02.079315700,3.427315673828125,0.027398694306612,0.0518578886985778,0.1239541992545127
2024-12-04 22:06:02.089391600,3.4373916015625,-0.0978356599807739,0.0327369198203086,-0.0203273445367813
2024-12-04 22:06:02.099467800,3.4474677734375,-0.2045269608497619,0.0127818789333105,-0.1517584770917892
2024-12-04 22:06:02.109543700,3.457543701171875,-0.2314227670431137,0.02906977199018,-0.2288271635770797
2024-12-04 22:06:02.119619800,3.467619873046875,-0.1716967225074768,0.0662368014454841,-0.1937199532985687
2024-12-04 22:06:02.129695700,3.47769580078125,-0.0243709199130535,0.144143059849739,-0.0586907714605331
2024-12-04 22:06:02.139771600,3.487771728515625,0.1787865310907364,0.2646869122982025,0.145689457654953
2024-12-04 22:06:02.149847800,3.497847900390625,0.4127726554870605,0.3631186485290527,0.373160183429718
2024-12-04 22:06:02.159923700,3.507923828125,0.6849983930587769,0.4708982110023498,0.5855398178100586
2024-12-04 22:06:02.170000000,3.517999755859375,0.9251686334609984,0.4603369235992431,0.8250110149383545
2024-12-04 22:06:02.180075800,3.52807568359375,1.0686274766921997,0.2139926701784134,1.1720596551895142
2024-12-04 22:06:02.190151700,3.538151611328125,1.052579045295715,-0.276176780462265,1.6630427837371826
2024-12-04 22:06:02.200227800,3.548227783203125,0.9630930423736572,-0.8623955845832825,2.1509816646575928
2024-12-04 22:06:02.210303700,3.5583037109375,0.8730846047401428,-1.391862869262695,2.468029737472534
2024-12-04 22:06:02.220380000,3.5683798828125,0.7721213102340698,-1.791147232055664,2.54799485206604
2024-12-04 22:06:02.230455800,3.578455810546875,0.6724367737770081,-1.868136525154113,2.404125690460205
2024-12-04 22:06:02.240531700,3.58853173828125,0.57120281457901,-1.5469552278518677,2.092658281326294
2024-12-04 22:06:02.250607600,3.598607666015625,0.3860513269901275,-1.1148171424865725,1.6485193967819214
2024-12-04 22:06:02.260682800,3.608682861328125,0.0894521027803421,-0.802609920501709,1.1975854635238647
2024-12-04 22:06:02.270759000,3.618759033203125,-0.2968300879001617,-0.9886308908462524,0.8261775970458984
2024-12-04 22:06:02.280834600,3.62883447265625,-0.6743587851524353,-1.2783018350601196,0.5410932898521423
2024-12-04 22:06:02.290910700,3.63891064453125,-0.9075808525085448,-1.3605562448501587,0.232568472623825
2024-12-04 22:06:02.300987000,3.64898681640625,-0.95784592628479,-1.149030327796936,-0.0011729018297046
2024-12-04 22:06:02.311062800,3.659062744140625,-0.8748950958251953,-0.8380337953567505,-0.0494030155241489
2024-12-04 22:06:02.321139000,3.669138916015625,-0.8003870248794556,-0.5885796546936035,0.1380993574857711
2024-12-04 22:06:02.331214600,3.679214599609375,-0.7260316014289856,-0.5936543345451355,0.4362125396728515
2024-12-04 22:06:02.341290800,3.689290771484375,-0.6830488443374634,-0.8545759320259094,0.7670316100120544
2024-12-04 22:06:02.351366700,3.69936669921875,-0.5884650945663452,-1.2426424026489258,1.0584783554077148
2024-12-04 22:06:02.361442800,3.70944287109375,-0.3317689895629883,-1.520415425300598,1.1724443435668943
2024-12-04 22:06:02.371519000,3.71951904296875,0.003798353485763,-1.6376792192459106,1.219563126564026
2024-12-04 22:06:02.381594600,3.7295947265625,0.13311368227005,-1.8795747756958008,1.241511344909668
2024-12-04 22:06:02.391670800,3.7396708984375,0.3295859694480896,-2.0911192893981934,1.3621469736099243
2024-12-04 22:06:02.401746700,3.74974658203125,0.4616944491863251,-2.2303924560546875,1.441389083862305
2024-12-04 22:06:02.411821800,3.75982177734375,0.5781728625297546,-2.292236804962158,1.4217495918273926
2024-12-04 22:06:02.421897700,3.769897705078125,0.7353596687316895,-2.3438832759857178,1.409558653831482
2024-12-04 22:06:02.431973600,3.7799736328125,1.108095407485962,-2.42356538772583,1.5730279684066772
2024-12-04 22:06:02.442049800,3.7900498046875,1.6145561933517456,-2.733573198318481,2.034963846206665
2024-12-04 22:06:02.452125700,3.800125732421875,2.136561870574951,-3.1553187370300293,2.7251176834106445
2024-12-04 22:06:02.462201900,3.810201904296875,2.6126298904418945,-3.220785617828369,3.346186876296997
2024-12-04 22:06:02.472277800,3.82027783203125,2.953074216842652,-2.619206428527832,3.651791572570801
2024-12-04 22:06:02.482353700,3.830353759765625,3.2057197093963623,-1.7549022436141968,3.6108672618865967
2024-12-04 22:06:02.492429800,3.840429931640625,3.3984639644622803,-1.0140472650527954,3.4233558177948
2024-12-04 22:06:02.502505700,3.850505615234375,3.5489754676818848,-0.4874772727489471,3.3431060314178467
2024-12-04 22:06:02.512582000,3.860581787109375,3.4621050357818604,0.1580934673547744,3.2946887016296387
2024-12-04 22:06:02.522657800,3.87065771484375,3.565998077392578,0.5459808111190796,3.112584590911865
2024-12-04 22:06:02.532733700,3.880733642578125,3.7120282649993896,0.560009241104126,3.0162570476531982
2024-12-04 22:06:02.542809600,3.8908095703125,3.955840826034546,0.8051941990852356,3.1788811683654785
2024-12-04 22:06:02.552884700,3.900884765625,4.337642192840576,0.7150246500968933,3.5579404830932617
2024-12-04 22:06:02.562961000,3.9109609375,4.349177360534668,0.569179117679596,3.9237637519836426
2024-12-04 22:06:02.573036500,3.92103662109375,4.138598918914795,0.7309243083000183,4.126644611358643
2024-12-04 22:06:02.583112700,3.93111279296875,4.040464401245117,0.8082632422447205,4.0961785316467285
2024-12-04 22:06:02.593188900,3.94118896484375,4.0545196533203125,0.7209120988845825,3.882082462310791
2024-12-04 22:06:02.603264800,3.9512646484375,4.036601543426514,0.5759875178337097,3.5881507396698
2024-12-04 22:06:02.613341000,3.9613408203125,3.928565979003906,0.5049229860305786,3.289257764816284
2024-12-04 22:06:02.623416600,3.97141650390625,3.803993225097656,0.4667083323001861,2.9777488708496094
2024-12-04 22:06:02.633492700,3.98149267578125,3.4223556518554688,0.3937262594699859,2.571864366531372
2024-12-04 22:06:02.643568600,3.991568603515625,3.296565294265747,0.4644251465797424,2.177093267440796
2024-12-04 22:06:02.653644800,4.001644775390625,3.481367349624634,0.2011298835277557,1.6582138538360596
2024-12-04 22:06:02.663721000,4.011720947265625,3.729362964630127,-1.09724223613739,1.3563045263290403
2024-12-04 22:06:02.673796600,4.021796630859375,3.7456116676330566,-1.8686013221740725,1.652861714363098
2024-12-04 22:06:02.683872800,4.031872802734375,3.810063600540161,-2.5773730278015137,2.044985771179199
2024-12-04 22:06:02.693948000,4.041947998046875,4.041254043579102,-3.4240856170654297,2.4664523601531982
2024-12-04 22:06:02.704023800,4.05202392578125,4.345907688140869,-4.11325740814209,2.9551289081573486
2024-12-04 22:06:02.714100000,4.062099853515625,4.390195846557617,-4.57329797744751,3.620218753814697
2024-12-04 22:06:02.724175600,4.072175537109375,3.948806047439575,-4.743435859680176,3.982545375823975
2024-12-04 22:06:02.734251800,4.082251708984375,3.310309171676636,-3.3964145183563232,3.1537954807281494
2024-12-04 22:06:02.744327700,4.09232763671875,3.00080680847168,-2.1970393657684326,2.3521063327789307
2024-12-04 22:06:02.754403800,4.10240380859375,2.952414035797119,-1.352476954460144,1.473297119140625
2024-12-04 22:06:02.764480000,4.11247998046875,3.2180843353271484,-0.5159547924995422,0.3663477599620819
2024-12-04 22:06:02.774555600,4.1225556640625,3.7025997638702393,-0.0812039151787757,-0.4399788677692413
2024-12-04 22:06:02.784631800,4.1326318359375,4.289589405059815,-0.0778769254684448,-0.4262028336524963
2024-12-04 22:06:02.794707700,4.142707763671875,4.633554935455322,-0.2281085103750229,-0.331108808517456
2024-12-04 22:06:02.804782800,4.152782958984375,4.7393479347229,-0.5886878967285156,0.0550596863031387
2024-12-04 22:06:02.814858800,4.162858642578125,4.426574230194092,-0.708063006401062,0.3283367753028869
2024-12-04 22:06:02.824934700,4.1729345703125,3.897675514221192,-0.6984116435050964,0.761157751083374
2024-12-04 22:06:02.835010800,4.1830107421875,3.518275260925293,-0.9354963302612304,1.7042450904846191
2024-12-04 22:06:02.845086700,4.193086669921875,3.087974548339844,-0.3508661091327667,2.2823729515075684
2024-12-04 22:06:02.855163000,4.203162841796875,2.552361011505127,1.4326797723770142,1.299980640411377
2024-12-04 22:06:02.865238300,4.21323828125,2.801791191101074,1.450469732284546,1.1094448566436768
2024-12-04 22:06:02.875314200,4.223314208984375,3.530611276626587,0.920560896396637,2.21097731590271
2024-12-04 22:06:02.885390000,4.23339013671875,3.706876754760742,1.722624897956848,3.0595386028289795
2024-12-04 22:06:02.895466000,4.243466064453125,3.514404773712158,2.658238887786865,3.0738677978515625
2024-12-04 22:06:02.905542100,4.253542236328125,3.476083278656006,2.4640052318573,3.107640266418457
2024-12-04 22:06:02.915618300,4.263618408203125,3.516331911087036,1.9612693786621087,3.359915256500244
2024-12-04 22:06:02.925694200,4.273694091796875,3.334946155548096,1.9429439306259155,3.5693867206573486
2024-12-04 22:06:02.935769000,4.28376904296875,3.0535616874694824,2.1890408992767334,3.071554660797119
2024-12-04 22:06:02.945845200,4.29384521484375,3.1005282402038574,1.889158844947815,2.586526393890381
2024-12-04 22:06:02.955921200,4.303921142578125,3.202835321426392,1.726814866065979,2.5392887592315674
2024-12-04 22:06:02.965997300,4.313997314453125,2.9368393421173096,2.1944167613983154,2.383542776107788
2024-12-04 22:06:02.976073000,4.324072998046875,2.345292568206787,2.78158974647522,1.818114161491394
2024-12-04 22:06:02.986149000,4.334149169921875,1.585443139076233,3.144073247909546,1.122411608695984
2024-12-04 22:06:02.996225000,4.34422509765625,0.6520299315452576,3.670103311538696,0.5488812923431396
2024-12-04 22:06:03.006301200,4.35430126953125,-0.3323626518249511,4.270307540893555,0.0353163406252861
2024-12-04 22:06:03.016377000,4.364377197265625,-1.3319242000579834,4.658534049987793,-0.4675787389278412
2024-12-04 22:06:03.026453200,4.374453369140625,-2.374220132827759,4.899904251098633,-0.967638373374939
2024-12-04 22:06:03.036528000,4.384528076171875,-3.4532859325408936,4.747478485107422,-1.566498041152954
2024-12-04 22:06:03.046604000,4.39460400390625,-4.452160358428955,4.008387565612793,-2.150071382522583
2024-12-04 22:06:03.056680200,4.40468017578125,-5.26580286026001,3.0137505531311035,-2.5615570545196533
2024-12-04 22:06:03.066756400,4.41475634765625,-5.715453147888184,1.9450963735580444,-2.653169870376587
2024-12-04 22:06:03.076832000,4.42483203125,-5.818113327026367,0.9255938529968262,-2.688208103179932
2024-12-04 22:06:03.086908200,4.434908203125,-4.929670333862305,0.8442798852920532,-4.2032999992370605
2024-12-04 22:06:03.096984000,4.444984130859375,-3.172213792800904,1.012055277824402,-7.273377895355225
2024-12-04 22:06:03.107060200,4.455060302734375,-1.7244998216629028,-0.009414754807949,-8.187752723693848
2024-12-04 22:06:03.117136100,4.46513623046875,-1.372705578804016,-0.5688532590866089,-7.070152282714844
2024-12-04 22:06:03.127212000,4.4752119140625,-1.8613309860229488,-0.9416090846061708,-5.738809585571289
2024-12-04 22:06:03.137288200,4.4852880859375,-2.9279727935791016,-0.8788551688194275,-5.137409210205078
2024-12-04 22:06:03.147363000,4.495363037109375,-4.1500983238220215,-1.1789450645446775,-4.567193984985352
2024-12-04 22:06:03.157439200,4.505439208984375,-4.649400234222412,-1.8602415323257449,-4.006730556488037
2024-12-04 22:06:03.167515100,4.51551513671875,-4.7603912353515625,-2.4630703926086426,-3.6340854167938232
2024-12-04 22:06:03.177591000,4.525591064453125,-5.043992519378662,-3.1774544715881348,-3.366645097732544
2024-12-04 22:06:03.187667200,4.535667236328125,-5.415012836456299,-4.041062831878662,-2.861517429351806
2024-12-04 22:06:03.197743000,4.5457431640625,-5.665551662445068,-4.541890621185303,-2.399595022201538
2024-12-04 22:06:03.207819300,4.5558193359375,-5.648685932159424,-4.465272426605225,-2.118300676345825
2024-12-04 22:06:03.217895000,4.56589501953125,-5.398940086364746,-4.086099147796631,-1.99431586265564
2024-12-04 22:06:03.227971000,4.57597119140625,-4.929198741912842,-3.747243642807007,-1.6465747356414795
2024-12-04 22:06:03.238047200,4.586047119140625,-4.617881774902344,-3.411881923675537,-1.2915143966674805
2024-12-04 22:06:03.248122000,4.5961220703125,-4.697840690612793,-2.8964226245880127,-0.6248496770858765
2024-12-04 22:06:03.258198300,4.6061982421875,-4.59541130065918,-2.9811034202575684,-0.076814517378807
2024-12-04 22:06:03.268274200,4.616274169921875,-4.180505752563477,-2.819655656814575,0.0739260911941528
2024-12-04 22:06:03.278350000,4.62635009765625,-3.9375598430633545,-2.5132319927215576,0.0635347068309784
2024-12-04 22:06:03.288426200,4.63642626953125,-3.548569679260254,-2.327903985977173,-0.345394104719162
2024-12-04 22:06:03.298502100,4.646502197265625,-3.254443883895874,-1.990370750427246,-0.5603482127189636
2024-12-04 22:06:03.308578300,4.656578369140625,-3.17067813873291,-1.3837486505508425,-0.2429075539112091
2024-12-04 22:06:03.318654000,4.666654052734375,-2.9743480682373047,-1.3478507995605469,0.3727308809757232
2024-12-04 22:06:03.328730000,4.676730224609375,-2.668486356735229,-1.5921504497528076,1.2222304344177246
2024-12-04 22:06:03.338806300,4.68680615234375,-2.098319292068481,-1.776394963264465,2.151257276535034
2024-12-04 22:06:03.348881200,4.696881103515625,-1.1894681453704834,-1.8414103984832764,2.9452834129333496
2024-12-04 22:06:03.358957000,4.70695703125,-0.1708021610975265,-1.7872403860092163,3.453303337097168
2024-12-04 22:06:03.369033200,4.717033203125,0.6411187648773193,-1.5146936178207395,3.6840996742248535
2024-12-04 22:06:03.379109000,4.727109130859375,1.2309170961380005,-0.8333630561828613,3.898658275604248
2024-12-04 22:06:03.389185300,4.737185302734375,1.715445041656494,-0.150555819272995,4.070789813995361
2024-12-04 22:06:03.399261200,4.74726123046875,1.988257646560669,0.4438329637050628,4.202970504760742
2024-12-04 22:06:03.409337000,4.757337158203125,2.6862056255340576,1.2628730535507202,4.132676601409912
2024-12-04 22:06:03.419413000,4.7674130859375,3.496014356613159,1.7917505502700806,3.586531162261963
2024-12-04 22:06:03.429489200,4.7774892578125,3.895057678222656,2.0880789756774902,2.7633848190307617
2024-12-04 22:06:03.439565000,4.78756494140625,3.916791439056397,2.252561569213867,2.012890815734864
2024-12-04 22:06:03.449640000,4.797639892578125,3.693109035491944,2.147850275039673,1.45086932182312
2024-12-04 22:06:03.459716000,4.807716064453125,3.446396350860596,1.407041311264038,1.1680649518966677
2024-12-04 22:06:03.469792000,4.8177919921875,3.332282304763794,1.2443013191223145,1.053597331047058
2024-12-04 22:06:03.479868200,4.8278681640625,3.152050495147705,1.298800706863403,0.9219176769256592
2024-12-04 22:06:03.489944300,4.8379443359375,3.027430295944214,1.1730926036834717,0.7058508396148682
2024-12-04 22:06:03.500020000,4.84802001953125,3.1884326934814453,1.0912963151931765,0.4494206309318542
2024-12-04 22:06:03.510096100,4.85809619140625,3.1689293384552,1.4153913259506226,-0.2030313313007354
2024-12-04 22:06:03.520172000,4.868172119140625,2.5563833713531494,1.176158428192139,-1.42571222782135
2024-12-04 22:06:03.530248200,4.878248291015625,1.838743805885315,0.7490250468254089,-2.329087495803833
2024-12-04 22:06:03.540324000,4.888323974609375,1.2944906949996948,1.165107011795044,-2.899612665176392
2024-12-04 22:06:03.550400300,4.898400146484375,1.0892858505249023,1.1936410665512085,-3.235541820526123
2024-12-04 22:06:03.560475100,4.90847509765625,1.2530481815338137,-0.663142204284668,-3.1539905071258545
2024-12-04 22:06:03.570551000,4.918551025390625,1.4462183713912964,-3.158559560775757,-2.9285643100738525
2024-12-04 22:06:03.580627200,4.928627197265625,1.483315348625183,-4.430202484130859,-2.686060905456543
2024-12-04 22:06:03.590703400,4.938703369140625,1.3544843196868896,-3.640933752059937,-2.0914134979248047
2024-12-04 22:06:03.600779000,4.948779052734375,0.9552380442619324,-0.6601396799087524,-0.8809657096862793
2024-12-04 22:06:03.610855200,4.958855224609375,0.5713305473327637,1.674707531929016,0.1745450049638748
2024-12-04 22:06:03.620931000,4.96893115234375,0.4788717329502105,2.3058958053588867,0.7259314656257629
2024-12-04 22:06:03.631007200,4.97900732421875,0.8207393288612366,1.8426971435546875,0.9605834484100342
2024-12-04 22:06:03.641083100,4.989083251953125,1.4918370246887207,1.5437051057815552,0.9673491716384888
2024-12-04 22:06:03.651159000,4.999158935546875,2.1637747287750244,1.6686428785324097,0.7396143078804016
2024-12-04 22:06:03.661234200,5.009234130859375,2.543324708938598,2.1576051712036133,0.3342614769935608
2024-12-04 22:06:03.671310000,5.01931005859375,2.6728591918945312,2.694366931915283,0.0389750897884368
2024-12-04 22:06:03.681386200,5.02938623046875,2.6424663066864014,3.067326307296753,-0.0561719313263893
2024-12-04 22:06:03.691462100,5.039462158203125,2.5360007286071777,3.1205251216888428,0.0003220830112695
2024-12-04 22:06:03.701538000,5.0495380859375,2.2715189456939697,2.9140734672546387,0.198824256658554
2024-12-04 22:06:03.711614200,5.0596142578125,1.7234339714050293,2.4727041721343994,0.3149212002754211
2024-12-04 22:06:03.721690000,5.069690185546875,0.7474030256271362,1.1294021606445312,0.1838478595018386
2024-12-04 22:06:03.731766300,5.079766357421875,0.2438202649354934,0.0870506018400192,0.0512995347380638
2024-12-04 22:06:03.741842000,5.089842041015625,0.6337589621543884,-0.0376423299312591,-0.079766608774662
2024-12-04 22:06:03.751918000,5.09991796875,1.2860230207443235,0.3760178685188293,-0.2873654067516327
2024-12-04 22:06:03.761993200,5.1099931640625,1.910202980041504,1.3286453485488892,-0.5908176898956299
2024-12-04 22:06:03.772069000,5.120069091796875,2.446760416030884,2.154704093933105,-1.1454689502716064
2024-12-04 22:06:03.782145300,5.130145263671875,2.8349709510803223,2.615651845932007,-1.680739402770996
2024-12-04 22:06:03.792221200,5.14022119140625,2.907800912857056,2.7999613285064697,-1.8472874164581297
2024-12-04 22:06:03.802297000,5.150297119140625,2.631803274154663,2.680750608444214,-1.6068627834320068
2024-12-04 22:06:03.812373200,5.160373291015625,2.22078013420105,2.0407540798187256,-1.0822559595108032
2024-12-04 22:06:03.822449200,5.17044921875,1.946091294288636,1.4461302757263184,-0.2132494151592254
2024-12-04 22:06:03.832525300,5.180525390625,1.8412576913833616,0.5767290592193604,0.6844026446342468
2024-12-04 22:06:03.842601000,5.19060107421875,1.5975103378295898,-0.1947127878665924,1.5417582988739014
2024-12-04 22:06:03.852677000,5.200677001953125,1.4226137399673462,-0.9086936712265016,2.296986818313598
2024-12-04 22:06:03.862753300,5.210753173828125,1.3268725872039795,-1.502935528755188,2.9440667629241943
2024-12-04 22:06:03.872829200,5.2208291015625,1.3023792505264282,-1.807021856307984,3.4977002143859863
2024-12-04 22:06:03.882904300,5.230904296875,1.3679063320159912,-1.668052315711975,3.816980361938477
2024-12-04 22:06:03.892980200,5.240980224609375,1.4073067903518677,-1.1399942636489868,3.934053897857666
2024-12-04 22:06:03.903056400,5.251056396484375,1.4063727855682373,-0.3475757837295532,3.866901874542236
2024-12-04 22:06:03.913132300,5.26113232421875,1.4674116373062134,0.718583345413208,3.6153039932250977
2024-12-04 22:06:03.923208200,5.271208251953125,1.5067765712738037,2.006243705749512,3.227171897888184
2024-12-04 22:06:03.933284400,5.281284423828125,1.42719304561615,3.094025135040283,2.701903820037842
2024-12-04 22:06:03.943360300,5.2913603515625,1.2504379749298096,3.539595365524292,1.899617314338684
2024-12-04 22:06:03.953436400,5.3014365234375,1.0741840600967407,3.0449886322021484,0.9414799213409424
2024-12-04 22:06:03.963512000,5.311511962890625,0.9966395497322084,2.1648614406585693,0.1484475433826446
2024-12-04 22:06:03.973588200,5.321588134765625,0.9897111654281616,2.0560598373413086,-0.2538993060588836
2024-12-04 22:06:03.983664400,5.331664306640625,0.9635549187660216,2.264158248901367,-0.5448930263519287
2024-12-04 22:06:03.993740300,5.341740234375,0.9386857151985168,1.9917343854904173,-0.6657931804656982
2024-12-04 22:06:04.003815200,5.351815185546875,0.9682049751281738,1.2807772159576416,-0.5334287285804749
2024-12-04 22:06:04.013891300,5.361891357421875,1.0173814296722412,0.2739631533622741,-0.2398659139871597
2024-12-04 22:06:04.023967200,5.37196728515625,1.0486162900924685,-0.3214413523674011,0.2480347752571106
2024-12-04 22:06:04.034043400,5.38204345703125,1.1710364818572998,-0.4557555913925171,0.6571379899978638
2024-12-04 22:06:04.044119300,5.392119384765625,1.6238540410995483,-0.0918405055999755,0.8404971957206726
2024-12-04 22:06:04.054195200,5.4021953125,2.153728485107422,0.3649156987667084,0.6929324269294739
2024-12-04 22:06:04.064271000,5.41227099609375,2.4343719482421875,0.5293552279472351,0.3666139245033264
2024-12-04 22:06:04.074347300,5.42234716796875,2.405613422393799,0.9342524409294128,0.1521406918764114
2024-12-04 22:06:04.084423400,5.43242333984375,2.148826360702514,1.5376521348953247,-0.1082288399338722
2024-12-04 22:06:04.094499300,5.442499267578125,1.770204782485962,2.0747230052948,-0.5744706392288208
2024-12-04 22:06:04.104575200,5.4525751953125,1.374868392944336,2.581103563308716,-1.1154508590698242
2024-12-04 22:06:04.114651100,5.462651123046875,1.0256714820861816,2.945056438446045,-1.5126004219055176
2024-12-04 22:06:04.124727300,5.472727294921875,0.7585189938545227,2.79748272895813,-1.8388153314590447
2024-12-04 22:06:04.134803200,5.48280322265625,0.6000664830207825,2.002948760986328,-2.1357789039611816
2024-12-04 22:06:04.144878000,5.492878173828125,0.5107083320617676,1.080966234207153,-2.242236852645874
2024-12-04 22:06:04.154954200,5.502954345703125,0.4098126292228699,0.3585595190525055,-2.267016649246216
2024-12-04 22:06:04.165030100,5.513030029296875,0.1949714422225952,-0.196852833032608,-2.278921365737915
2024-12-04 22:06:04.175106300,5.523106201171875,-0.5462614893913269,-0.3042650520801544,-2.0480446815490723
2024-12-04 22:06:04.185182200,5.53318212890625,-1.6368850469589231,-0.2711236178874969,-1.525247573852539
2024-12-04 22:06:04.195258400,5.54325830078125,-2.399907350540161,-0.8677400350570679,-1.1457266807556152
2024-12-04 22:06:04.205334300,5.553334228515625,-2.7982711791992188,-1.580315113067627,-0.8379201292991638
2024-12-04 22:06:04.215410200,5.56341015625,-2.796379566192627,-2.0810375213623047,-0.4749726057052612
2024-12-04 22:06:04.225486300,5.573486328125,-2.598957061767578,-2.2600231170654297,-0.1700369417667389
2024-12-04 22:06:04.235562200,5.583562255859375,-2.3372573852539062,-2.411053419113159,-0.0380580648779869
2024-12-04 22:06:04.245638400,5.593638427734375,-1.9226315021514893,-2.7660045623779297,-0.1937989145517349
2024-12-04 22:06:04.255714300,5.60371435546875,-1.4661036729812622,-3.302079677581787,-0.5521579384803772
2024-12-04 22:06:04.265790200,5.613790283203125,-1.2251838445663452,-3.56397008895874,-0.8655110597610474
2024-12-04 22:06:04.275865300,5.623865234375,-1.30251944065094,-3.383961677551269,-1.071311116218567
2024-12-04 22:06:04.285941200,5.633941162109375,-1.3918671607971191,-3.030562162399292,-1.1597647666931152
2024-12-04 22:06:04.296017200,5.64401708984375,-1.3120018243789673,-2.7409818172454834,-1.0463072061538696
2024-12-04 22:06:04.306093300,5.65409326171875,-1.1065882444381714,-2.8244194984436035,-0.7297087907791138
2024-12-04 22:06:04.316169200,5.664169189453125,-0.7614694833755493,-3.822176933288574,-0.4741998612880707
2024-12-04 22:06:04.326245400,5.674245361328125,-0.2169805914163589,-5.2317328453063965,-0.4602004289627075
2024-12-04 22:06:04.336321300,5.6843212890625,0.5638445615768433,-5.915080547332764,-0.4065093100070953
2024-12-04 22:06:04.346397200,5.694397216796875,1.016060471534729,-5.384934425354004,-0.545325756072998
2024-12-04 22:06:04.356473000,5.70447314453125,1.3985316753387451,-4.703858852386475,-0.5234960913658142
2024-12-04 22:06:04.366549200,5.71454931640625,1.6440902948379517,-3.815354347229004,-0.3951919376850128
2024-12-04 22:06:04.376625400,5.72462548828125,1.9155418872833248,-3.0470213890075684,-0.2666756808757782
2024-12-04 22:06:04.386701300,5.734701416015625,1.954497218132019,-2.092535257339477,-0.2686448097229004
2024-12-04 22:06:04.396777200,5.744777099609375,1.0283825397491455,-0.1009634882211685,-0.7455940246582031
2024-12-04 22:06:04.406853000,5.75485302734375,-0.3649478852748871,1.97443425655365,-1.5334635972976685
2024-12-04 22:06:04.416929300,5.76492919921875,-0.9855635166168212,1.8590075969696045,-2.181606769561768
2024-12-04 22:06:04.427005200,5.775005126953125,-1.2191909551620483,0.5306119918823242,-2.354818820953369
2024-12-04 22:06:04.437080300,5.785080322265625,-1.3609720468521118,-0.9853028059005736,-1.6271039247512815
2024-12-04 22:06:04.447156200,5.79515625,-1.2604191303253174,-1.882068037986756,-0.793624997138977
2024-12-04 22:06:04.457232100,5.805232177734375,-1.2171337604522705,-2.0252795219421387,-0.1025555506348609
2024-12-04 22:06:04.467308300,5.815308349609375,-1.1822106838226318,-1.7954469919204712,0.729806125164032
2024-12-04 22:06:04.477384400,5.825384521484375,-1.0219104290008545,-1.867969393730164,0.964272439479828
2024-12-04 22:06:04.487460400,5.83546044921875,-0.851279079914093,-2.384812831878662,0.8893777132034302
2024-12-04 22:06:04.497536300,5.845536376953125,-0.6778275966644287,-3.1854963302612305,0.8197891116142273
2024-12-04 22:06:04.507612200,5.855612060546875,-0.5408015251159668,-3.988793611526489,0.949068009853363
2024-12-04 22:06:04.517688300,5.865688232421875,-0.3263672590255737,-4.184051513671875,0.9800293445587158
2024-12-04 22:06:04.527764200,5.87576416015625,-0.1883281767368316,-3.527984857559204,0.8528681993484497
2024-12-04 22:06:04.537840400,5.88584033203125,-0.4020297527313232,-2.17875599861145,0.4210011959075928
2024-12-04 22:06:04.547916300,5.895916259765625,-0.759560763835907,-0.4973979890346527,-0.4057720899581909
2024-12-04 22:06:04.557992200,5.9059921875,-1.068998098373413,1.010265231132507,-1.1081746816635132
2024-12-04 22:06:04.568068400,5.916068359375,-1.2112878561019895,1.8011330366134644,-1.437830090522766
2024-12-04 22:06:04.578144300,5.926144287109375,-1.28358256816864,1.7250499725341797,-1.3102519512176514
2024-12-04 22:06:04.588220400,5.936220458984375,-1.2900519371032717,1.0567086935043335,-0.90606027841568
2024-12-04 22:06:04.598296000,5.946296142578125,-1.1618236303329468,0.2642073035240173,-0.525679886341095
2024-12-04 22:06:04.608371200,5.95637109375,-0.8670921325683594,-0.1244030147790908,-0.3339115083217621
2024-12-04 22:06:04.618447400,5.966447265625,-0.5169126987457275,-0.0213735997676849,-0.2838300168514251
2024-12-04 22:06:04.628523300,5.976523193359375,-0.2326469123363495,0.0999999716877937,-0.2592969834804535
2024-12-04 22:06:04.638599200,5.98659912109375,-0.1039511263370513,-0.0463575646281242,-0.1587593853473663
2024-12-04 22:06:04.648675300,5.99667529296875,-0.1323098093271255,-0.3023001253604889,0.0063619222491979
2024-12-04 22:06:04.658751200,6.006751220703125,-0.2771069705486297,-0.4110926985740661,0.1400695294141769
2024-12-04 22:06:04.668827400,6.016827392578125,-0.4206162095069885,-0.3161113262176513,0.2807462215423584
2024-12-04 22:06:04.678903300,6.0269033203125,-0.5078253149986267,-0.1030183658003807,0.4892779588699341
2024-12-04 22:06:04.688979200,6.036979248046875,-0.52259361743927,0.09018225222826,0.7197492122650146
2024-12-04 22:06:04.699055000,6.04705517578125,-0.4604432582855224,0.287586361169815,0.8828757405281067
2024-12-04 22:06:04.709131300,6.05713134765625,-0.3266870379447937,0.6055030822753906,0.96498042345047
2024-12-04 22:06:04.719207200,6.067207275390625,-0.067642405629158,0.980638027191162,1.128752827644348
2024-12-04 22:06:04.729283300,6.077283447265625,0.3412537574768066,1.2143102884292605,1.2129402160644531
2024-12-04 22:06:04.739359500,6.087359375,0.8947700262069702,0.5827112793922424,0.7090877890586853
2024-12-04 22:06:04.749435100,6.09743505859375,1.3567304611206057,-0.3189429342746734,-0.1001807823777198
2024-12-04 22:06:04.759511300,6.10751123046875,1.5184807777404783,-0.360102117061615,-0.297552227973938
2024-12-04 22:06:04.769586400,6.11758642578125,1.2569929361343384,0.4162735044956207,0.0508507490158081
2024-12-04 22:06:04.779662300,6.127662353515625,0.4317812323570251,1.7041006088256836,0.436746746301651
2024-12-04 22:06:04.789738200,6.13773828125,-0.4596171379089355,3.2755515575408936,0.7738614082336426
2024-12-04 22:06:04.799814100,6.147814208984375,-0.9205544590950012,4.773294925689697,0.9930713176727296
2024-12-04 22:06:04.809890300,6.157890380859375,-1.0122580528259275,5.479976177215576,0.99520343542099
2024-12-04 22:06:04.819966200,6.16796630859375,-0.8782556056976318,5.58437967300415,0.8655453324317932
2024-12-04 22:06:04.830042400,6.17804248046875,-0.625028133392334,5.329667568206787,0.6088483333587646
2024-12-04 22:06:04.840118300,6.1881181640625,-0.4007528126239776,4.84051513671875,0.2808530628681183
2024-12-04 22:06:04.850194200,6.198194091796875,-0.3062047362327575,4.27132511138916,-0.058457363396883
2024-12-04 22:06:04.860270300,6.208270263671875,-0.2510855495929718,3.7043752670288086,-0.3346187770366668
2024-12-04 22:06:04.870347000,6.218346923828125,-0.2213002294301986,3.113381862640381,-0.557757556438446
2024-12-04 22:06:04.880423000,6.2284228515625,-0.2696998119354248,2.5916147232055664,-0.7436045408248901
2024-12-04 22:06:04.890498800,6.238498779296875,-0.3239494860172272,2.21287202835083,-0.8918240666389465
2024-12-04 22:06:04.900575000,6.248574951171875,-0.3668848872184753,1.9837312698364256,-1.0152064561843872
2024-12-04 22:06:04.910651000,6.25865087890625,-0.3560194671154022,1.9070391654968264,-1.085685133934021
2024-12-04 22:06:04.920727000,6.26872705078125,-0.2780919671058655,1.867840886116028,-1.0456604957580566
2024-12-04 22:06:04.930803000,6.278802978515625,-0.0432022288441658,1.802291989326477,-0.9477179646492004
2024-12-04 22:06:04.940877800,6.2888779296875,0.4124172329902649,1.712743043899536,-0.8765908479690552
2024-12-04 22:06:04.950954000,6.2989541015625,1.0923960208892822,1.4929189682006836,-0.7491558790206909
2024-12-04 22:06:04.961030000,6.30902978515625,1.8246361017227173,1.1657768487930298,-0.5502578020095825
2024-12-04 22:06:04.971106000,6.31910595703125,2.5094213485717773,0.8360958695411682,-0.2330929040908813
2024-12-04 22:06:04.981182000,6.329181884765625,3.217167615890503,0.5721635818481445,0.3012194633483886
2024-12-04 22:06:04.991257900,6.3392578125,3.95520281791687,1.5154167413711548,1.4240251779556274
2024-12-04 22:06:05.001334000,6.349333984375,4.721538543701172,3.4423630237579346,2.791250705718994
2024-12-04 22:06:05.011410000,6.359409912109375,5.635793209075928,3.5133488178253174,3.4022200107574463
2024-12-04 22:06:05.021486000,6.369486083984375,6.426661491394043,2.9823014736175537,3.567131519317627
2024-12-04 22:06:05.031561700,6.379561767578125,6.957165241241455,3.014746189117432,3.5897912979125977
2024-12-04 22:06:05.041638000,6.389637939453125,7.000927448272705,3.6053760051727295,3.566277265548706
2024-12-04 22:06:05.051714000,6.399714111328125,6.724956035614014,4.364896297454834,3.408381938934326
2024-12-04 22:06:05.061790000,6.4097900390625,6.192311763763428,5.071328163146973,3.0409419536590576
2024-12-04 22:06:05.071866000,6.4198662109375,5.485783100128174,5.599534034729004,2.5550663471221924
2024-12-04 22:06:05.081941800,6.429941650390625,4.692898273468018,6.1629719734191895,1.9469448328018188
2024-12-04 22:06:05.092018000,6.440017822265625,3.8358662128448486,6.658041000366211,1.390368103981018
2024-12-04 22:06:05.102093800,6.45009375,2.811156272888184,6.8427557945251465,1.265220284461975
2024-12-04 22:06:05.112169000,6.4601689453125,1.608185887336731,6.8866729736328125,1.5488427877426147
2024-12-04 22:06:05.122244900,6.470244873046875,0.4732618927955627,6.155660152435303,2.1812241077423096
2024-12-04 22:06:05.132320800,6.48032080078125,-0.286032497882843,4.425819396972656,2.770425796508789
2024-12-04 22:06:05.142397000,6.49039697265625,-0.5241957306861877,1.6788452863693235,2.942593812942505
2024-12-04 22:06:05.152473000,6.50047314453125,-0.3120344281196594,-1.5022372007369995,2.1258909702301025
2024-12-04 22:06:05.162549000,6.510549072265625,0.2271363288164138,-3.45041561126709,0.2210409045219421
2024-12-04 22:06:05.172625000,6.520625,0.8191338777542114,-3.0299291610717773,-0.8516439199447632
2024-12-04 22:06:05.182700800,6.53070068359375,1.1663551330566406,-0.961262345314026,-0.7041786313056946
2024-12-04 22:06:05.192777000,6.54077685546875,1.2900195121765137,1.425911784172058,-0.2480939626693725
2024-12-04 22:06:05.202852900,6.550852783203125,1.244054913520813,2.8250534534454346,0.1910659074783325
2024-12-04 22:06:05.212929000,6.560928955078125,1.0563225746154783,2.353843212127685,0.592336118221283
2024-12-04 22:06:05.223005000,6.5710048828125,0.8918054103851318,0.7042625546455383,0.5824731588363647
2024-12-04 22:06:05.233080800,6.581080810546875,0.8768011331558228,-0.2881606519222259,0.1627544164657592
2024-12-04 22:06:05.243157000,6.591156982421875,0.9544010162353516,0.1661504656076431,-0.238433837890625
2024-12-04 22:06:05.253233000,6.60123291015625,1.0196019411087036,1.0410977602005005,-0.5728043913841248
2024-12-04 22:06:05.263309000,6.61130908203125,1.0635071992874146,1.1133499145507812,-0.8093857169151306
2024-12-04 22:06:05.273384000,6.621384033203125,1.011035442352295,0.3649063110351562,-0.7766379117965698
2024-12-04 22:06:05.283459800,6.6314599609375,0.7477090954780579,-0.4187451899051666,-0.4657340943813324
2024-12-04 22:06:05.293536000,6.641535888671875,0.2896131575107574,-0.5978071093559265,-0.2408530712127685
2024-12-04 22:06:05.303612000,6.65161181640625,-0.317701905965805,-0.286614179611206,-0.3400686979293823
2024-12-04 22:06:05.313688000,6.66168798828125,-0.8875411748886108,0.1160067617893219,-0.6843986511230469
2024-12-04 22:06:05.323764000,6.671763916015625,-1.314018964767456,0.2612021863460541,-1.1011072397232056
2024-12-04 22:06:05.333840000,6.68183984375,-1.608911395072937,0.0396413132548332,-1.4471018314361572
2024-12-04 22:06:05.343916000,6.691916015625,-1.843834400177002,-0.1972083151340484,-1.6233707666397097
2024-12-04 22:06:05.353992000,6.701991943359375,-2.1245322227478027,-0.0576296485960483,-1.74738347530365
2024-12-04 22:06:05.364068000,6.712068115234375,-2.4901785850524902,0.2691661715507507,-1.944717168807984
2024-12-04 22:06:05.374143700,6.722143798828125,-2.8697423934936523,0.4418798983097076,-2.1216752529144287
2024-12-04 22:06:05.384220000,6.732219970703125,-3.220021963119507,0.3174517750740051,-2.048954725265503
2024-12-04 22:06:05.394295800,6.7422958984375,-3.4849674701690674,-0.0165701657533645,-1.600845217704773
2024-12-04 22:06:05.404372000,6.7523720703125,-3.676177263259888,-0.4709233939647674,-0.9374778866767884
2024-12-04 22:06:05.414448000,6.7624482421875,-3.9019274711608887,-0.941410481929779,-0.4693261086940765
2024-12-04 22:06:05.424522800,6.772522705078125,-4.059134006500244,-1.3255879878997805,-0.3894582986831665
2024-12-04 22:06:05.434599000,6.782598876953125,-4.187493801116943,-1.6037189960479736,-0.6115100383758545
2024-12-04 22:06:05.444675000,6.792675048828125,-4.284322738647461,-1.813884139060974,-0.860108494758606
2024-12-04 22:06:05.454751000,6.8027509765625,-4.294443130493164,-1.9163740873336792,-0.894254207611084
2024-12-04 22:06:05.464827000,6.812826904296875,-4.182921886444092,-1.924419403076172,-0.7213786840438843
2024-12-04 22:06:05.474902800,6.82290283203125,-3.9305343627929688,-1.876833200454712,-0.6967947483062744
2024-12-04 22:06:05.484979000,6.83297900390625,-3.472975254058838,-1.7135777473449707,-0.7832175493240356
2024-12-04 22:06:05.495054800,6.843054931640625,-2.990360975265503,-1.3643862009048462,-0.8194557428359985
2024-12-04 22:06:05.505131000,6.853131103515625,-2.474076271057129,-0.878125011920929,-0.6974388957023621
2024-12-04 22:06:05.515207200,6.863207275390625,-1.9661954641342163,-0.291091114282608,-0.5565797686576843
2024-12-04 22:06:05.525282800,6.87328271484375,-1.59747576713562,0.0349270924925804,-0.409649908542633
2024-12-04 22:06:05.535359000,6.88335888671875,-1.3961471319198608,-0.1781886518001556,-0.3356702029705047
2024-12-04 22:06:05.545435000,6.893434814453125,-1.2898163795471191,-0.8319972157478333,-0.2759303450584411
2024-12-04 22:06:05.555511000,6.903510986328125,-1.2625408172607422,-1.5690802335739136,-0.2672220766544342
2024-12-04 22:06:05.565587000,6.9135869140625,-1.2972017526626587,-2.290212154388428,-0.27129727602005
2024-12-04 22:06:05.575661800,6.923661865234375,-1.3168362379074097,-2.9497275352478027,-0.2846184074878692
2024-12-04 22:06:05.585738000,6.933738037109375,-1.290452003479004,-3.4715161323547363,-0.3267881274223327
2024-12-04 22:06:05.595814000,6.94381396484375,-1.2637102603912354,-3.448075771331787,-0.3742986619472503
2024-12-04 22:06:05.605890000,6.95389013671875,-1.2714046239852903,-2.9030745029449463,-0.3997921049594879
2024-12-04 22:06:05.615966000,6.963966064453125,-1.3310935497283936,-2.132696390151977,-0.3344320058822632
2024-12-04 22:06:05.626041900,6.974041748046875,-1.43852698802948,-1.3338322639465332,-0.1906399726867675
2024-12-04 22:06:05.636118000,6.984117919921875,-1.5185155868530271,-0.6721818447113037,0.0306010637432336
2024-12-04 22:06:05.646194000,6.99419384765625,-1.5384432077407837,-0.2828224599361419,0.3354751765727997
2024-12-04 22:06:05.656270000,7.00427001953125,-1.5030839443206787,-0.3026393055915832,0.6922205090522766
2024-12-04 22:06:05.666345700,7.014345703125,-1.4118809700012207,-0.7056165337562561,1.023112654685974
2024-12-04 22:06:05.676422000,7.024421875,-1.275661587715149,-1.4816888570785522,1.2207783460617063
2024-12-04 22:06:05.686498000,7.034498046875,-0.9870650768280028,-2.4256391525268555,1.143105149269104
2024-12-04 22:06:05.696574000,7.044573974609375,-0.597472071647644,-3.127877950668335,0.7068238854408264
2024-12-04 22:06:05.706650000,7.054650146484375,-0.2761425077915191,-3.3308558464050293,0.1120961159467697
2024-12-04 22:06:05.716725000,7.06472509765625,-0.0984337925910949,-3.117934465408325,-0.2984072566032409
2024-12-04 22:06:05.726801000,7.07480078125,-0.0721814483404159,-2.7064976692199707,-0.5135658979415894
2024-12-04 22:06:05.736877000,7.084876953125,-0.1217687055468559,-2.078169107437134,-0.5675334930419922
2024-12-04 22:06:05.746953000,7.094952880859375,-0.1853589713573455,-1.2334169149398804,-0.4636869728565216
2024-12-04 22:06:05.757028900,7.10502880859375,-0.2393910586833953,-0.3554758131504059,-0.262743204832077
2024-12-04 22:06:05.767104800,7.115104736328125,-0.307615578174591,0.2800648212432861,0.0002393913455307
2024-12-04 22:06:05.777181000,7.125180908203125,-0.4134578704833984,0.6292015314102173,0.1102852076292038
2024-12-04 22:06:05.787256800,7.1352568359375,-0.4482386410236358,0.4743176996707916,0.1527114063501358
2024-12-04 22:06:05.797333000,7.1453330078125,-0.4159480929374695,-0.3776461482048034,0.2670731544494629
2024-12-04 22:06:05.807409200,7.1554091796875,-0.3445729613304138,-1.3831371068954468,0.4219711720943451
2024-12-04 22:06:05.817484800,7.16548486328125,-0.3167285323143005,-1.990725040435791,0.5590768456459045
2024-12-04 22:06:05.827561000,7.17556103515625,-0.316541314125061,-1.909451246261597,0.666429877281189
2024-12-04 22:06:05.837636000,7.185635986328125,-0.264014184474945,-1.07423996925354,0.6760175228118896
2024-12-04 22:06:05.847712000,7.1957119140625,-0.1635017991065979,-0.1417266279458999,0.4138509631156921
2024-12-04 22:06:05.857788000,7.205787841796875,0.122521162033081,0.6425402164459229,0.1778402775526046
2024-12-04 22:06:05.867864000,7.215864013671875,0.5461661219596863,1.1824402809143066,0.0640396550297737
2024-12-04 22:06:05.877940000,7.22593994140625,0.9896224141120912,1.324515700340271,-0.2372767776250839
2024-12-04 22:06:05.888016000,7.236015869140625,1.2561898231506348,1.3914724588394165,-0.566216230392456
2024-12-04 22:06:05.898092000,7.246092041015625,1.190654158592224,1.291372537612915,-0.2990284562110901
2024-12-04 22:06:05.908168200,7.256168212890625,0.8327254056930542,1.222304105758667,0.441193550825119
2024-12-04 22:06:05.918244000,7.266244140625,0.6067942976951599,1.7542012929916382,0.7681508660316467
2024-12-04 22:06:05.928320000,7.276320068359375,0.6872395277023315,2.611103057861328,0.5799407958984375
2024-12-04 22:06:05.938396000,7.28639599609375,0.9775419235229492,3.509141683578491,0.2275712937116623
2024-12-04 22:06:05.948472000,7.29647216796875,1.3784278631210327,4.24971866607666,-0.1249647289514541
2024-12-04 22:06:05.958548000,7.3065478515625,1.8149545192718504,4.768674373626709,-0.3320792913436889
2024-12-04 22:06:05.968622800,7.316622802734375,2.256319761276245,5.091938495635986,-0.4013027846813202
2024-12-04 22:06:05.978699000,7.326698974609375,2.674642562866211,5.178195953369141,-0.4231854379177093
2024-12-04 22:06:05.988775000,7.33677490234375,3.022620439529419,5.102382659912109,-0.5456076264381409
2024-12-04 22:06:05.998851000,7.34685107421875,3.185953617095948,4.925327301025391,-0.7316417098045349
2024-12-04 22:06:06.008927200,7.35692724609375,3.1438536643981934,4.671641826629639,-1.028908133506775
2024-12-04 22:06:06.019003000,7.3670029296875,2.9158682823181152,4.170705318450928,-1.3086183071136477
2024-12-04 22:06:06.029079000,7.3770791015625,2.5994210243225098,3.3798296451568604,-1.404702067375183
2024-12-04 22:06:06.039155000,7.387155029296875,2.3329849243164062,2.317523717880249,-1.3115689754486084
2024-12-04 22:06:06.049231000,7.397231201171875,2.1526594161987305,1.1179107427597046,-1.030219554901123
2024-12-04 22:06:06.059307000,7.40730712890625,2.024123191833496,-0.00106753828004,-0.5316894054412842
2024-12-04 22:06:06.069383000,7.4173828125,1.953479170799256,-1.044193983078003,0.0418170243501663
2024-12-04 22:06:06.079458000,7.4274580078125,1.92920184135437,-1.9475922584533687,0.5270066261291504
2024-12-04 22:06:06.089534000,7.437533935546875,1.9431513547897337,-2.614346981048584,0.8542805314064026
2024-12-04 22:06:06.099610000,7.447610107421875,2.032601356506348,-3.086951971054077,1.0565547943115234
2024-12-04 22:06:06.109686000,7.45768603515625,2.1746153831481934,-3.35742449760437,1.1692944765090942
2024-12-04 22:06:06.119762000,7.467761962890625,2.327709674835205,-3.398815631866455,1.2415937185287476
2024-12-04 22:06:06.129838000,7.477838134765625,2.4497127532958984,-3.2315587997436523,1.3108495473861694
2024-12-04 22:06:06.139914000,7.4879140625,2.461769819259644,-2.9689278602600098,1.4349031448364258
2024-12-04 22:06:06.149990100,7.497990234375,2.378149032592773,-2.8635311126708984,1.594172477722168
2024-12-04 22:06:06.160066000,7.508066162109375,2.247487783432007,-2.9214346408843994,1.7442748546600342
2024-12-04 22:06:06.170142000,7.518141845703125,2.106935739517212,-2.9012460708618164,1.8690248727798464
2024-12-04 22:06:06.180217900,7.5282177734375,1.9710372686386108,-2.657655954360962,1.9782490730285645
2024-12-04 22:06:06.190293000,7.53829296875,1.7035820484161377,-1.7926267385482788,2.4438281059265137
2024-12-04 22:06:06.200369200,7.548369140625,1.3229206800460815,-0.446681261062622,2.9971275329589844
2024-12-04 22:06:06.210444800,7.55844482421875,1.1104532480239868,0.3425034582614898,2.934117555618286
2024-12-04 22:06:06.220521000,7.56852099609375,1.0270949602127075,0.8987493515014648,2.428939819335937
2024-12-04 22:06:06.230597000,7.57859716796875,0.9862608909606934,1.628884196281433,1.9828648567199707
2024-12-04 22:06:06.240673000,7.588673095703125,0.9135565757751464,2.58290433883667,1.826022267341613
2024-12-04 22:06:06.250749200,7.598749267578125,0.8847348690032959,3.41042423248291,1.738000988960266
2024-12-04 22:06:06.260824800,7.608824951171875,0.9196840524673462,3.79568076133728,1.6121482849121094
2024-12-04 22:06:06.270901000,7.61890087890625,0.9614943265914916,3.738197326660156,1.6006085872650146
2024-12-04 22:06:06.280977000,7.628976806640625,1.009201169013977,3.3062667846679688,1.7307770252227783
2024-12-04 22:06:06.291053000,7.639052978515625,0.9977717399597168,2.534245252609253,1.903231501579285
2024-12-04 22:06:06.301129200,7.649129150390625,0.9141674041748048,1.1469842195510864,1.6721266508102417
2024-12-04 22:06:06.311203800,7.659203857421875,0.8281457424163818,-0.7621673941612244,0.6414585709571838
2024-12-04 22:06:06.321280000,7.669280029296875,0.7320104241371155,-1.9074530601501465,-0.3974168598651886
2024-12-04 22:06:06.331356200,7.679356201171875,0.6084758043289185,-1.4922665357589722,-0.5639867782592773
2024-12-04 22:06:06.341432000,7.68943212890625,0.4807819724082947,-0.0427593439817428,-0.2792964875698089
2024-12-04 22:06:06.351508000,7.699508056640625,0.3950345516204834,1.5228687524795532,-0.0177468955516815
2024-12-04 22:06:06.361583900,7.709583984375,0.3312659561634063,2.7501981258392334,0.1943802833557129
2024-12-04 22:06:06.371660000,7.719659912109375,0.3776660859584808,2.6807730197906494,0.4533795118331909
2024-12-04 22:06:06.381736000,7.72973583984375,0.581677258014679,1.3099929094314575,0.4471554458141327
2024-12-04 22:06:06.391812000,7.73981201171875,0.9384426474571228,0.2166594862937927,0.1847896128892898
2024-12-04 22:06:06.401888300,7.74988818359375,1.2256120443344116,0.2742447555065155,-0.1313563734292984
2024-12-04 22:06:06.411963000,7.759962890625,1.2562545537948608,0.6809573173522949,-0.3905558288097381
2024-12-04 22:06:06.422039000,7.7700390625,1.1172186136245728,0.7613991498947144,-0.4894158244132995
2024-12-04 22:06:06.432115200,7.780115234375,0.9457949995994568,0.576213002204895,-0.5328463912010193
2024-12-04 22:06:06.442191000,7.790191162109375,0.7841999530792236,0.2820301055908203,-0.5840760469436646
2024-12-04 22:06:06.452267000,7.80026708984375,0.6656132936477661,-0.0276203230023384,-0.5795050263404846
2024-12-04 22:06:06.462343000,7.810343017578125,0.5381890535354614,-0.2331545650959015,-0.5025660395622253
2024-12-04 22:06:06.472419000,7.820419189453125,0.2836827933788299,-0.183681771159172,-0.4158179461956024
2024-12-04 22:06:06.482495000,7.830494873046875,-0.162759393453598,0.251672625541687,-0.4329108893871307
2024-12-04 22:06:06.492571100,7.840571044921875,-0.7464467883110046,0.8337794542312622,-0.7537766098976135
2024-12-04 22:06:06.502646000,7.85064599609375,-1.4063807725906372,1.1317728757858276,-1.3893853425979614
2024-12-04 22:06:06.512722000,7.860721923828125,-2.0597705841064453,0.99977707862854,-1.9695829153060915
2024-12-04 22:06:06.522798000,7.870798095703125,-2.591515064239502,0.6775585412979126,-2.242663860321045
2024-12-04 22:06:06.532874000,7.8808740234375,-2.863901138305664,0.3712289929389953,-2.2994234561920166
2024-12-04 22:06:06.542950000,7.890949951171875,-3.032047271728516,0.0353292822837829,-2.161581039428711
2024-12-04 22:06:06.553026000,7.901026123046875,-3.177629232406616,-0.4303289949893951,-1.8591315746307373
2024-12-04 22:06:06.563102000,7.91110205078125,-3.380641222000122,-0.9916352033615112,-1.4300402402877808
2024-12-04 22:06:06.573178000,7.92117822265625,-3.5115091800689697,-1.5045171976089478,-1.0651003122329712
2024-12-04 22:06:06.583254000,7.93125390625,-3.56081223487854,-1.864703059196472,-0.8630611896514893
2024-12-04 22:06:06.593330000,7.941329833984375,-3.675373077392578,-2.084401130676269,-0.7495866417884827
2024-12-04 22:06:06.603405000,7.951405029296875,-3.8322832584381104,-2.149741649627685,-0.7163168787956238
2024-12-04 22:06:06.613481000,7.96148095703125,-3.941972732543945,-1.92871618270874,-0.7594330310821533
2024-12-04 22:06:06.623557000,7.97155712890625,-4.035776138305664,-1.346298336982727,-0.818268358707428
2024-12-04 22:06:06.633633000,7.981633056640625,-4.118985652923584,-0.6070718765258789,-0.7965598106384277
2024-12-04 22:06:06.643709000,7.991708984375,-4.0225749015808105,0.1590606719255447,-0.7683451771736145
2024-12-04 22:06:06.653785000,8.00178515625,-3.759885787963867,0.7931936383247375,-0.8678685426712036
2024-12-04 22:06:06.663861000,8.011861083984375,-3.388512372970581,0.9979198575019836,-0.9767438769340516
2024-12-04 22:06:06.673937200,8.021937255859376,-2.925267457962036,0.7117552161216736,-0.9706364870071412
2024-12-04 22:06:06.684013000,8.032012939453125,-2.3130202293396,0.1845870316028595,-0.9042582511901855
2024-12-04 22:06:06.694088000,8.042087890625,-1.7539169788360596,-0.8977794647216797,-0.7884527444839478
2024-12-04 22:06:06.704164000,8.0521640625,-1.3823609352111816,-1.8108588457107544,-0.7211493253707886
2024-12-04 22:06:06.714240000,8.062239990234374,-1.245007872581482,-2.3582093715667725,-0.7012885808944702
2024-12-04 22:06:06.724316200,8.072316162109376,-1.263845682144165,-2.378997564315796,-0.7036941647529602
2024-12-04 22:06:06.734391800,8.082391845703125,-1.3203802108764648,-1.9875272512435915,-0.645611584186554
2024-12-04 22:06:06.744468000,8.092468017578126,-1.3942091464996338,-1.407668113708496,-0.4925316870212555
2024-12-04 22:06:06.754544000,8.102544189453125,-1.4278185367584229,-1.0500919818878174,-0.3061076700687408
2024-12-04 22:06:06.764620000,8.1126201171875,-1.426395297050476,-0.978379249572754,-0.1059489995241165
2024-12-04 22:06:06.774696200,8.1226962890625,-1.436691164970398,-1.0648703575134275,0.0050644725561141
2024-12-04 22:06:06.784771800,8.132771728515625,-1.4734177589416504,-1.108931303024292,0.0291141495108604
2024-12-04 22:06:06.794847000,8.142846923828126,-1.5151727199554443,-0.9276331067085266,0.0344276502728462
2024-12-04 22:06:06.804923100,8.152923095703125,-1.5457841157913208,-0.903019905090332,0.0607788264751434
2024-12-04 22:06:06.814999000,8.1629990234375,-1.4411845207214355,-0.9955903887748718,0.2063369303941726
2024-12-04 22:06:06.825075000,8.173074951171875,-1.2021030187606812,-1.1578552722930908,0.4170805811882019
2024-12-04 22:06:06.835150800,8.18315087890625,-0.8689794540405273,-1.1685523986816406,0.5901510119438171
2024-12-04 22:06:06.845227000,8.19322705078125,-0.5526174902915955,-0.9188767671585084,0.6282379627227783
2024-12-04 22:06:06.855303200,8.20330322265625,-0.3352414667606354,-0.7048555612564087,0.5146600008010864
2024-12-04 22:06:06.865379600,8.213379638671874,-0.1919058561325073,-0.732701301574707,0.3020031452178955
2024-12-04 22:06:06.875454500,8.223454345703125,-0.1053503006696701,-0.9565790295600892,0.0601589977741241
2024-12-04 22:06:06.885530400,8.2335302734375,-0.0555883347988128,-1.0942386388778689,-0.1903576403856277
2024-12-04 22:06:06.895606500,8.2436064453125,0.0026987418532371,-1.0912951231002808,-0.4159178435802459
2024-12-04 22:06:06.905682700,8.2536826171875,0.1023907139897346,-0.9148503541946412,-0.5215758085250854
2024-12-04 22:06:06.915758600,8.263758544921876,0.2269266545772552,-0.6422500610351562,-0.4692268967628479
2024-12-04 22:06:06.925834500,8.27383447265625,0.3338208794593811,-0.4597114324569702,-0.3516688346862793
2024-12-04 22:06:06.935910400,8.283910400390624,0.4324007332324981,-0.3914316296577453,-0.1648696810007095
2024-12-04 22:06:06.945986600,8.293986572265625,0.4929825961589813,-0.1642988920211792,0.0918284133076667
2024-12-04 22:06:06.956062500,8.3040625,0.4800157248973846,-0.1076182648539543,0.2514254450798034
2024-12-04 22:06:06.966137300,8.314137451171876,0.3913838565349579,-0.0779088363051414,0.428047627210617
2024-12-04 22:06:06.976213500,8.324213623046875,0.3095852136611938,-0.2244402319192886,0.5448280572891235
2024-12-04 22:06:06.986289400,8.334289306640626,0.3164937198162079,-0.4522491693496704,0.5804568529129028
2024-12-04 22:06:06.996365600,8.344365478515625,0.3101401925086975,-0.417663425207138,0.6423758864402771
2024-12-04 22:06:07.006441500,8.35444140625,0.3867979347705841,-0.1099838763475418,0.5308852791786194
2024-12-04 22:06:07.016517400,8.364517333984375,0.3717395961284637,0.3270160555839538,0.2020351886749267
2024-12-04 22:06:07.026593500,8.374593505859375,0.2978246212005615,0.999994695186615,0.064544178545475
2024-12-04 22:06:07.036669400,8.38466943359375,0.2487560957670211,1.306243062019348,-0.0093747870996594
2024-12-04 22:06:07.046744600,8.39474462890625,0.2564595341682434,1.1381161212921145,-0.3313368558883667
2024-12-04 22:06:07.056820700,8.40482080078125,0.2122969031333923,0.8000426888465881,-0.4669914841651916
2024-12-04 22:06:07.066896400,8.414896484375,0.1115790829062461,0.2668035626411438,-0.2531279325485229
2024-12-04 22:06:07.076972500,8.42497265625,0.0504900962114334,0.1250255852937698,0.1736366003751754
2024-12-04 22:06:07.087048400,8.43504833984375,0.1329753845930099,0.7226511836051941,0.2641627788543701
2024-12-04 22:06:07.097124600,8.44512451171875,0.3785551488399505,1.731931209564209,0.012927932664752
2024-12-04 22:06:07.107200500,8.455200439453124,0.7184141874313354,2.820244789123535,-0.2305712699890136
2024-12-04 22:06:07.117276400,8.4652763671875,1.086775779724121,3.87066650390625,-0.2030156403779983
2024-12-04 22:06:07.127351600,8.4753515625,1.442676663398743,4.6382832527160645,-0.062052134424448
2024-12-04 22:06:07.137427500,8.485427490234375,1.805356502532959,5.060413837432861,0.0914858430624008
2024-12-04 22:06:07.147503600,8.495503662109375,2.2625157833099365,5.291197776794434,0.0933700278401374
2024-12-04 22:06:07.157579500,8.50557958984375,2.681400775909424,5.330021858215332,-0.157274380326271
2024-12-04 22:06:07.167655400,8.515655517578125,2.962695598602295,5.044712066650391,-0.4888451099395752
2024-12-04 22:06:07.177731600,8.525731689453124,3.088606834411621,4.49127197265625,-0.7592504620552063
2024-12-04 22:06:07.187807500,8.535807373046875,3.0818915367126465,3.768708467483521,-0.9872601628303528
2024-12-04 22:06:07.197883600,8.545883544921875,2.986854076385498,2.991340398788452,-1.1304731369018557
2024-12-04 22:06:07.207958500,8.55595849609375,2.851969242095948,2.1226398944854736,-1.1752712726593018
2024-12-04 22:06:07.218034400,8.566034423828125,2.742713689804077,1.1378720998764038,-1.1564841270446775
2024-12-04 22:06:07.228110600,8.576110595703126,2.675802707672119,0.0704419761896133,-1.0858352184295654
2024-12-04 22:06:07.238186500,8.5861865234375,2.658398628234864,-0.9229362607002258,-0.9198269248008728
2024-12-04 22:06:07.248262400,8.596262451171874,2.691601753234864,-1.8747886419296265,-0.6691265106201172
2024-12-04 22:06:07.258338600,8.606338623046875,2.7322804927825928,-2.781500101089477,-0.3154281973838806
2024-12-04 22:06:07.268414500,8.61641455078125,2.7634472846984863,-3.4813756942749023,0.1111521422863006
2024-12-04 22:06:07.278490600,8.62649072265625,2.8008475303649902,-4.228567600250244,0.5017520785331726
2024-12-04 22:06:07.288565800,8.636565673828125,2.80903697013855,-4.963201999664307,0.8778101205825806
2024-12-04 22:06:07.298641400,8.646641357421874,2.8031105995178223,-5.636823654174805,1.2349624633789062
2024-12-04 22:06:07.308717600,8.656717529296875,2.8108439445495605,-6.116698265075684,1.6613062620162964
2024-12-04 22:06:07.318793500,8.66679345703125,2.752486228942871,-5.711822032928467,2.491398572921753
2024-12-04 22:06:07.328869600,8.67686962890625,2.606924533843994,-4.1278605461120605,3.4608800411224365
2024-12-04 22:06:07.338945500,8.686945556640625,2.3611557483673096,-2.3883919715881348,3.656022548675537
2024-12-04 22:06:07.349021400,8.697021484375,2.032918691635132,-0.8878734111785889,3.186444044113159
2024-12-04 22:06:07.359097600,8.70709765625,1.6854695081710815,0.5363171100616455,2.398268699645996
2024-12-04 22:06:07.369172500,8.71717236328125,1.3567960262298584,1.845802545547485,1.6953562498092651
2024-12-04 22:06:07.379248600,8.72724853515625,1.0181416273117063,2.941277980804444,1.2526322603225708
2024-12-04 22:06:07.389324500,8.737324462890625,0.7141463160514832,3.557602643966675,0.9691227674484252
2024-12-04 22:06:07.399400400,8.747400390625,0.5305913686752319,3.638347864151001,0.8484517335891724
2024-12-04 22:06:07.409476600,8.7574765625,0.4206627905368805,3.1892685890197754,1.0060008764266968
2024-12-04 22:06:07.419552500,8.767552490234374,0.3900538384914398,2.3041508197784424,1.3608137369155884
2024-12-04 22:06:07.429628700,8.777628662109375,0.4343198537826538,1.1013747453689575,1.4925180673599243
2024-12-04 22:06:07.439703600,8.78770361328125,0.5540128946304321,-0.0437501557171344,1.160765290260315
2024-12-04 22:06:07.449779500,8.797779541015625,0.7203922867774963,-0.5886340141296387,0.6859886646270752
2024-12-04 22:06:07.459855600,8.807855712890625,0.8244671821594238,-0.6013333797454834,0.3829574584960937
2024-12-04 22:06:07.469931500,8.817931640625,0.809431791305542,-0.3526221513748169,0.2348995357751846
2024-12-04 22:06:07.480007400,8.82800732421875,0.738004744052887,0.0592112988233566,0.1720224171876907
2024-12-04 22:06:07.490083600,8.83808349609375,0.6764172911643982,0.5907465815544128,0.1731193661689758
2024-12-04 22:06:07.500159500,8.848159423828125,0.643733561038971,1.1106704473495483,0.2674415409564972
2024-12-04 22:06:07.510234600,8.858234619140624,0.7208749651908875,1.4623310565948486,0.4156112968921661
2024-12-04 22:06:07.520310500,8.868310546875,0.9535130262374878,1.4763329029083252,0.3927463889122009
2024-12-04 22:06:07.530386400,8.878386474609375,1.2854132652282717,0.92173171043396,0.0229172073304653
2024-12-04 22:06:07.540462600,8.888462646484374,1.645019292831421,0.3865863084793091,-0.4781296253204345
2024-12-04 22:06:07.550538500,8.89853857421875,1.827156901359558,0.1067261546850204,-0.7881866097450256
2024-12-04 22:06:07.560614700,8.90861474609375,1.779632329940796,-0.285428911447525,-0.9151663780212402
2024-12-04 22:06:07.570690600,8.918690673828126,1.613133430480957,-0.7312988042831421,-0.9072636961936952
2024-12-04 22:06:07.580765400,8.928765380859375,1.4087464809417725,-0.9684191346168518,-0.8102484941482544
2024-12-04 22:06:07.590841600,8.938841552734376,1.143862009048462,-0.8853884339332581,-0.6781612634658813
2024-12-04 22:06:07.600917500,8.94891748046875,0.7303835153579712,-0.6406702995300293,-0.6394838094711304
2024-12-04 22:06:07.610993700,8.95899365234375,0.2047575712203979,-0.1933215707540512,-0.7181469202041626
2024-12-04 22:06:07.621069300,8.9690693359375,-0.3635751008987427,0.5121721625328064,-0.7996023893356323
2024-12-04 22:06:07.631145500,8.9791455078125,-0.9913210272789,1.222012996673584,-0.9266407489776612
2024-12-04 22:06:07.641221600,8.9892216796875,-1.7520345449447632,1.7015095949172974,-1.1939936876296997
2024-12-04 22:06:07.651297500,8.999297607421875,-2.703615427017212,1.65102219581604,-1.560983657836914
2024-12-04 22:06:07.661372400,9.009372314453126,-3.577480792999268,1.241430163383484,-1.862382411956787
2024-12-04 22:06:07.671448600,9.019448486328123,-4.167433261871338,0.9494300484657288,-1.9694137573242188
2024-12-04 22:06:07.681524500,9.0295244140625,-4.465387344360352,0.8043486475944519,-1.833018183708191
2024-12-04 22:06:07.691600600,9.0396005859375,-4.544499397277832,0.5747998356819153,-1.4678285121917725
2024-12-04 22:06:07.701676500,9.049676513671876,-4.530770778656006,0.108498491346836,-1.0103511810302734
2024-12-04 22:06:07.711752400,9.05975244140625,-4.437257289886475,-0.3388358652591705,-0.7108808755874634
2024-12-04 22:06:07.721828400,9.069828369140623,-4.295264720916748,-0.60874342918396,-0.5990862250328064
2024-12-04 22:06:07.731903500,9.079903564453126,-4.221701145172119,-0.796055793762207,-0.5359408259391785
2024-12-04 22:06:07.741979600,9.089979736328123,-4.199142932891846,-1.005219340324402,-0.3823442161083221
2024-12-04 22:06:07.752055300,9.10005517578125,-4.262908935546875,-1.2410659790039062,-0.1516484469175338
2024-12-04 22:06:07.762131500,9.11013134765625,-4.240131378173828,-1.345929741859436,-0.0413420759141445
2024-12-04 22:06:07.772207600,9.12020751953125,-3.96073317527771,-1.128649115562439,-0.1557291001081466
2024-12-04 22:06:07.782283500,9.130283447265626,-3.3800110816955566,-0.7075461149215698,-0.4817425310611725
2024-12-04 22:06:07.792359700,9.140359619140623,-2.610363721847534,-0.4778210520744324,-0.833220899105072
2024-12-04 22:06:07.802434600,9.1504345703125,-1.927732825279236,-0.4716229140758514,-1.102632999420166
2024-12-04 22:06:07.812510500,9.160510498046875,-1.484331727027893,-0.6058827638626099,-1.2266329526901243
2024-12-04 22:06:07.822586600,9.170586669921876,-1.276120901107788,-0.8360700011253357,-1.1988166570663452
2024-12-04 22:06:07.832662500,9.18066259765625,-1.2550145387649536,-0.9228544235229492,-1.084227442741394
2024-12-04 22:06:07.842738700,9.19073876953125,-1.3092762231826782,-0.734407901763916,-0.9604348540306092
2024-12-04 22:06:07.852814300,9.200814453125,-1.3293359279632568,-0.4951679408550262,-0.859807014465332
2024-12-04 22:06:07.862889500,9.210889404296877,-1.270528793334961,-0.449725329875946,-0.8005710244178772
2024-12-04 22:06:07.872965000,9.220965087890624,-1.1301721334457395,-0.8040887117385864,-0.7381454706192017
2024-12-04 22:06:07.883041000,9.231041015625,-0.9161292910575868,-1.372950553894043,-0.659670352935791
2024-12-04 22:06:07.893117200,9.2411171875,-0.6446815729141235,-2.022822618484497,-0.570311427116394
2024-12-04 22:06:07.903193300,9.251193359375,-0.384664237499237,-2.5599119663238525,-0.4552886486053467
2024-12-04 22:06:07.913269000,9.26126904296875,-0.1992661356925964,-2.772161960601806,-0.3152239620685577
2024-12-04 22:06:07.923345200,9.27134521484375,-0.1586122214794159,-2.757871150970459,-0.1036131456494331
2024-12-04 22:06:07.933420300,9.281420166015623,-0.3320649862289428,-2.637723207473755,0.2333235889673233
2024-12-04 22:06:07.943496200,9.29149609375,-0.62432861328125,-2.447100877761841,0.6114145517349243
2024-12-04 22:06:07.953572000,9.301572021484375,-0.8635156154632568,-2.1015748977661133,0.9079657793045044
2024-12-04 22:06:07.963648000,9.31164794921875,-0.977731704711914,-1.501329779624939,1.0434346199035645
2024-12-04 22:06:07.973724200,9.32172412109375,-0.9572376012802124,-0.906343638896942,0.9425381422042848
2024-12-04 22:06:07.983800000,9.331800048828123,-0.8632075786590576,-0.5499407052993774,0.7159742116928101
2024-12-04 22:06:07.993876200,9.341876220703124,-0.7217894196510315,-0.5657446980476379,0.4640056788921356
2024-12-04 22:06:08.003951000,9.351951171875,-0.5742522478103638,-0.8251726627349854,0.2742803692817688
2024-12-04 22:06:08.014027000,9.362027099609374,-0.4669769406318664,-1.0377626419067385,0.1786031126976013
2024-12-04 22:06:08.024103200,9.372103271484375,-0.4200941324234009,-0.8768329620361328,0.1738855242729187
2024-12-04 22:06:08.034179300,9.382179443359377,-0.3987869918346405,-0.5927048325538635,0.2038836330175399
2024-12-04 22:06:08.044255200,9.392255126953126,-0.3750342130661011,-0.2448786348104477,0.2735703587532043
2024-12-04 22:06:08.054331100,9.4023310546875,-0.376530647277832,-0.0448984131217002,0.3410548567771911
2024-12-04 22:06:08.064406300,9.41240625,-0.3777675032615661,-0.0555996820330619,0.3852671682834625
2024-12-04 22:06:08.074482200,9.422482177734375,-0.3389577865600586,-0.1278749406337738,0.4216046631336212
2024-12-04 22:06:08.084558300,9.432558349609376,-0.2718844711780548,-0.2046003490686416,0.4695540964603424
2024-12-04 22:06:08.094634000,9.442634033203126,-0.2083861827850341,-0.3641119599342346,0.4651598632335663
2024-12-04 22:06:08.104710100,9.452710205078125,-0.1514792740345001,-0.6993799805641174,0.3543664515018463
2024-12-04 22:06:08.114786000,9.4627861328125,-0.1575166583061218,-1.063808560371399,0.2107536196708679
2024-12-04 22:06:08.124862200,9.4728623046875,-0.202290877699852,-1.165379524230957,0.1450891196727752
2024-12-04 22:06:08.134937000,9.48293701171875,-0.2891916930675506,-1.0986578464508057,0.1624534726142883
2024-12-04 22:06:08.145013000,9.493012939453124,-0.3211898505687713,-0.7650601267814636,0.1862523108720779
2024-12-04 22:06:08.155089200,9.503089111328125,-0.2970184683799743,0.2421500831842422,-0.0363330841064453
2024-12-04 22:06:08.165165300,9.513165283203126,-0.3994409739971161,1.5468254089355469,-0.6163644194602966
2024-12-04 22:06:08.175241200,9.5232412109375,-0.5355143547058105,2.0965335369110107,-0.77555912733078
2024-12-04 22:06:08.185317000,9.533317138671874,-0.5669863224029541,2.099156141281128,-0.4373380243778229
2024-12-04 22:06:08.195392300,9.543392333984375,-0.4337950050830841,2.049144506454468,-0.2483966052532196
2024-12-04 22:06:08.205468200,9.55346826171875,-0.2410665899515152,1.65095853805542,0.2145063430070877
2024-12-04 22:06:08.215544300,9.56354443359375,0.160039022564888,1.2291042804718018,0.3573420345783233
2024-12-04 22:06:08.225620000,9.573619873046876,0.7823447585105896,1.4376590251922607,-0.0136336106806993
2024-12-04 22:06:08.235696000,9.583696044921876,1.3158330917358398,1.9711487293243408,-0.3640390336513519
2024-12-04 22:06:08.245772000,9.59377197265625,1.588187336921692,2.4768662452697754,-0.4334153234958648
2024-12-04 22:06:08.255848200,9.60384814453125,1.696070909500122,3.0356898307800293,-0.3514741361141205
2024-12-04 22:06:08.265923300,9.61392333984375,1.843423843383789,3.612582921981812,-0.1807240098714828
2024-12-04 22:06:08.275999000,9.6239990234375,2.074917316436768,4.294402122497559,-0.1035120412707328
2024-12-04 22:06:08.286075100,9.6340751953125,2.316355466842652,4.9227824211120605,-0.127451553940773
2024-12-04 22:06:08.296151000,9.644151123046877,2.514724016189575,5.3528265953063965,-0.1511038839817047
2024-12-04 22:06:08.306227200,9.654227294921874,2.643073320388794,5.464098930358887,-0.1706941425800323
2024-12-04 22:06:08.316303400,9.664303466796875,2.6194865703582764,5.226751804351807,-0.1890715509653091
2024-12-04 22:06:08.326378000,9.6743779296875,2.464803695678711,4.753695011138916,-0.2072944492101669
2024-12-04 22:06:08.336454100,9.6844541015625,2.275984048843384,4.14265775680542,-0.2498064935207367
2024-12-04 22:06:08.346530300,9.6945302734375,2.122145652770996,3.423647880554199,-0.3274043798446655
2024-12-04 22:06:08.356606200,9.704606201171876,2.057660818099976,2.6050374507904053,-0.407834529876709
2024-12-04 22:06:08.366682000,9.71468212890625,2.021189451217652,1.7960100173950195,-0.4450377523899078
2024-12-04 22:06:08.376758000,9.724758056640624,1.9983481168746948,1.0927618741989136,-0.4153898656368255
2024-12-04 22:06:08.386833200,9.734833251953123,2.0274031162261963,0.4380761384963989,-0.3324840366840362
2024-12-04 22:06:08.396909300,9.744909423828124,2.0934882164001465,-0.0916311293840408,-0.1966649293899536
2024-12-04 22:06:08.406985000,9.75498486328125,2.1602437496185303,-0.5106860995292664,-0.0637885406613349
2024-12-04 22:06:08.417061000,9.76506103515625,2.185211181640625,-0.9517761468887328,0.0288670938462018
2024-12-04 22:06:08.427137000,9.775136962890626,2.185299873352051,-1.4755196571350098,0.0724463835358619
2024-12-04 22:06:08.437213200,9.785213134765623,2.17543625831604,-1.988952398300171,0.0919812023639679
2024-12-04 22:06:08.447288000,9.7952880859375,2.183220863342285,-2.530005693435669,0.1108399331569671
2024-12-04 22:06:08.457364000,9.805364013671875,2.208519697189331,-3.151488780975342,0.1403434872627258
2024-12-04 22:06:08.467440000,9.815440185546874,2.197601318359375,-3.556617259979248,0.2570201754570007
2024-12-04 22:06:08.477516300,9.825516357421876,2.14462685585022,-3.8833377361297607,0.4470287263393402
2024-12-04 22:06:08.487592200,9.83559228515625,2.083688735961914,-4.250378608703613,0.6566624641418457
2024-12-04 22:06:08.497668000,9.845668212890626,1.9659708738327024,-4.633014678955078,0.9928202033042908
2024-12-04 22:06:08.507743200,9.8557431640625,1.7975736856460571,-4.6018147468566895,1.5313125848770142
2024-12-04 22:06:08.517819100,9.865819091796874,1.623092770576477,-3.94976019859314,2.238438606262207
2024-12-04 22:06:08.527895300,9.875895263671875,1.3513039350509644,-2.390082359313965,3.135531425476074
2024-12-04 22:06:08.537971200,9.88597119140625,1.0649096965789795,-0.3877986073493957,3.937135219573975
2024-12-04 22:06:08.548047000,9.896047119140626,0.8720637559890747,1.056710124015808,3.821505069732666
2024-12-04 22:06:08.558123000,9.906123046875,0.7473375797271729,1.991451978683472,3.048853635787964
2024-12-04 22:06:08.568199200,9.91619921875,0.6739102602005005,2.9061837196350098,2.193728446960449
2024-12-04 22:06:08.578274300,9.9262744140625,0.6417195796966553,4.21061897277832,1.8252966403961184
2024-12-04 22:06:08.588350000,9.936349853515624,0.581381618976593,5.276381015777588,1.7819983959197998
2024-12-04 22:06:08.598426000,9.946426025390624,0.4929007589817047,4.971028804779053,1.8281936645507808
2024-12-04 22:06:08.608502300,9.956502197265625,0.4500757753849029,1.97986900806427,1.3936724662780762
2024-12-04 22:06:08.618578200,9.966578125,0.6679940223693848,-1.603509545326233,-0.1440631002187729
2024-12-04 22:06:08.628653000,9.976653076171877,1.000463366508484,-2.4798262119293213,-1.2411775588989258
2024-12-04 22:06:08.638729200,9.986729248046874,1.1544824838638306,-1.1556295156478882,-1.0952004194259644
2024-12-04 22:06:08.648805000,9.99680517578125,1.0498709678649902,0.748729944229126,-0.4819357693195343
2024-12-04 22:06:08.658881300,10.00688134765625,0.8998236656188965,2.010762453079224,-0.1012347564101219
2024-12-04 22:06:08.668957200,10.016957275390626,0.844833254814148,1.8269907236099243,0.1600371301174163
2024-12-04 22:06:08.679033000,10.027033203125,0.8882984519004822,0.8151064515113831,0.3114343583583832
2024-12-04 22:06:08.689109000,10.03710888671875,1.038198947906494,0.5933849215507507,0.0437235832214355
2024-12-04 22:06:08.699184000,10.04718408203125,1.0950273275375366,0.8905550241470337,-0.4627350866794586
2024-12-04 22:06:08.709260300,10.05726025390625,1.050467610359192,0.7229292988777161,-0.7953518033027649
2024-12-04 22:06:08.719336000,10.0673359375,0.9910746216773988,0.04398675262928,-0.9279053211212158
2024-12-04 22:06:08.729412000,10.077412109375,0.93095201253891,-0.6740753650665283,-0.9287332892417908
2024-12-04 22:06:08.739488000,10.087488037109376,0.8044537305831909,-0.9662103056907654,-0.8596205711364746
2024-12-04 22:06:08.749563100,10.097563232421876,0.5350996255874634,-0.8650198578834534,-0.8149062991142273
2024-12-04 22:06:08.759639000,10.10763916015625,0.132444828748703,-0.4732025563716888,-0.80678391456604
2024-12-04 22:06:08.769715000,10.11771484375,-0.3291471898555755,0.1916894167661667,-0.773485004901886
2024-12-04 22:06:08.779791000,10.127791015625,-0.8098200559616089,1.0137585401535034,-0.7959567308425903
2024-12-04 22:06:08.789867300,10.1378671875,-1.3441202640533447,1.6964114904403689,-1.0257353782653809
2024-12-04 22:06:08.799943200,10.147943115234376,-1.9969736337661743,1.9704222679138184,-1.46567964553833
2024-12-04 22:06:08.810018000,10.15801806640625,-2.783456802368164,1.8574550151824951,-1.9359328746795648
2024-12-04 22:06:08.820094200,10.16809423828125,-3.5958011150360107,1.3083056211471558,-2.2382972240448
2024-12-04 22:06:08.830170000,10.178170166015626,-4.222285270690918,0.5860074758529663,-2.179786443710327
2024-12-04 22:06:08.840246300,10.188246337890623,-4.610083103179932,-0.214838832616806,-1.6692352294921875
2024-12-04 22:06:08.850322200,10.198322265625,-4.834163188934326,-1.0817458629608154,-1.12836754322052
2024-12-04 22:06:08.860398000,10.208398193359375,-4.906994819641113,-1.7041306495666504,-0.9219608902931212
2024-12-04 22:06:08.870472700,10.21847265625,-4.83599853515625,-1.900938510894776,-0.9122536778450012
2024-12-04 22:06:08.880548600,10.228548583984375,-4.677523136138916,-1.6757436990737915,-0.9020100831985474
2024-12-04 22:06:08.890624800,10.238624755859377,-4.468213081359863,-1.1901228427886963,-0.8461185693740845
2024-12-04 22:06:08.900701000,10.248700927734374,-4.215573310852051,-0.4239721894264221,-0.6830316781997681
2024-12-04 22:06:08.910776800,10.25877685546875,-4.117276668548584,0.306764006614685,-0.101731963455677
2024-12-04 22:06:08.920852700,10.268852783203124,-4.129189014434815,0.4956290125846863,0.5144633054733276
2024-12-04 22:06:08.930927900,10.278927978515624,-3.907685279846192,0.3203260600566864,0.5236174464225769
2024-12-04 22:06:08.941003800,10.289003662109376,-3.589844226837158,-0.1525139063596725,0.2116694301366806
2024-12-04 22:06:08.951080000,10.299079833984376,-3.200171709060669,-0.7541202306747437,-0.2443339079618454
2024-12-04 22:06:08.961155600,10.309155517578125,-2.593637228012085,-1.1329444646835327,-0.6720849871635437
2024-12-04 22:06:08.971231700,10.319231689453124,-2.0289995670318604,-1.2416560649871826,-0.9957473874092102
2024-12-04 22:06:08.981307000,10.329306884765623,-1.6882867813110352,-1.182753086090088,-1.2196332216262815
2024-12-04 22:06:08.991382800,10.3393828125,-1.51927649974823,-1.1339284181594849,-1.3440024852752686
2024-12-04 22:06:09.001459000,10.349458984375,-1.4595377445220947,-1.2288237810134888,-1.2918506860733032
2024-12-04 22:06:09.011534600,10.35953466796875,-1.4519009590148926,-1.6613376140594482,-1.1161376237869265
2024-12-04 22:06:09.021610800,10.36961083984375,-1.3997313976287842,-2.3102290630340576,-0.8719936609268188
2024-12-04 22:06:09.031686700,10.379686767578123,-1.2610392570495603,-2.8997085094451904,-0.6823210120201111
2024-12-04 22:06:09.041761800,10.38976171875,-1.0632236003875732,-3.164799213409424,-0.6025276780128479
2024-12-04 22:06:09.051837700,10.399837646484375,-0.8985691070556641,-2.916288137435913,-0.50445556640625
2024-12-04 22:06:09.061913900,10.409913818359374,-0.8212777972221375,-2.376833200454712,-0.3245427906513214
2024-12-04 22:06:09.071989800,10.41998974609375,-0.8278188705444336,-1.9295024871826167,-0.0996251925826072
2024-12-04 22:06:09.082066000,10.43006591796875,-0.8514389395713806,-1.5809247493743896,0.1574697196483612
2024-12-04 22:06:09.092141800,10.440141845703126,-0.8754779100418091,-1.2355997562408447,0.4326459765434265
2024-12-04 22:06:09.102216700,10.450216796875,-0.8613748550415039,-0.995136260986328,0.6539663672447205
2024-12-04 22:06:09.112292900,10.46029296875,-0.7779883742332458,-0.9268195033073424,0.8139868378639221
2024-12-04 22:06:09.122368800,10.47036865234375,-0.5338508486747742,-0.8238227963447571,0.9251397252082824
2024-12-04 22:06:09.132445000,10.48044482421875,-0.1822462230920791,-0.5480046272277832,0.9674943089485168
2024-12-04 22:06:09.142520600,10.4905205078125,0.0692318081855773,-0.2941257059574127,0.8281652331352234
2024-12-04 22:06:09.152595700,10.500595703125,0.1436491459608078,-0.4291502237319946,0.554856538772583
2024-12-04 22:06:09.162671900,10.510671875,0.1275567412376403,-1.0221104621887207,0.214493378996849
2024-12-04 22:06:09.172747800,10.520747802734377,0.0629121139645576,-1.72312593460083,-0.1724942177534103
2024-12-04 22:06:09.182823700,10.53082373046875,0.0273392107337713,-2.01546573638916,-0.473159521818161
2024-12-04 22:06:09.192899600,10.540899658203124,0.047983318567276,-1.597886562347412,-0.4959623217582702
2024-12-04 22:06:09.202975700,10.550975830078125,0.1199435368180275,-0.8902425169944763,-0.192621648311615
2024-12-04 22:06:09.213051000,10.56105078125,0.1506372392177581,-0.3951647579669952,0.2522221505641937
2024-12-04 22:06:09.223126500,10.57112646484375,0.0680321082472801,0.0491386614739894,0.749477207660675
2024-12-04 22:06:09.233202700,10.58120263671875,-0.0502183027565479,0.6002019643783569,1.1287877559661863
2024-12-04 22:06:09.243278800,10.59127880859375,-0.1665302664041519,0.8197290301322937,1.280185580253601
2024-12-04 22:06:09.253354800,10.601354736328124,-0.2650219798088074,0.7717478275299072,1.281159520149231
2024-12-04 22:06:09.263430000,10.611429931640624,-0.2916288375854492,0.9270503520965576,1.1071046590805054
2024-12-04 22:06:09.273505800,10.621505859375,-0.3285557925701141,1.3664472103118896,0.427141785621643
2024-12-04 22:06:09.283581700,10.631581787109376,-0.3130151629447937,1.4987434148788452,-0.212115928530693
2024-12-04 22:06:09.293657900,10.641657958984377,-0.1830195635557174,1.2541855573654177,-0.3913654685020447
2024-12-04 22:06:09.303733800,10.651733642578124,0.0230134911835193,0.7439723610877991,-0.7795968651771545
2024-12-04 22:06:09.313810000,10.661809814453123,0.1630085557699203,0.2804403603076935,-1.0587756633758545
2024-12-04 22:06:09.323884800,10.671884765625,0.2307745516300201,-0.4853401482105255,-0.9061168432235718
2024-12-04 22:06:09.333960700,10.681960693359375,0.2456210553646087,-1.083890676498413,-0.4118396341800689
2024-12-04 22:06:09.344036900,10.692036865234376,0.3571654260158539,-0.7703109383583069,-0.0007242530118674
2024-12-04 22:06:09.354112800,10.70211279296875,0.6130865216255188,0.2665329277515411,0.0989366397261619
2024-12-04 22:06:09.364188700,10.712188720703123,0.9035249948501588,1.597070813179016,-0.0108654927462339
2024-12-04 22:06:09.374263800,10.722263916015624,1.1432037353515625,2.935347318649292,-0.1820744276046753
2024-12-04 22:06:09.384339700,10.732339599609375,1.3426339626312256,4.127948760986328,-0.3747181594371795
2024-12-04 22:06:09.394415900,10.742415771484374,1.5773587226867676,5.068395137786865,-0.5262677669525146
2024-12-04 22:06:09.404491800,10.75249169921875,1.893520951271057,5.761146068572998,-0.5555404424667358
2024-12-04 22:06:09.414567700,10.762567626953125,2.270130157470703,6.087499618530273,-0.4695639014244079
2024-12-04 22:06:09.424642800,10.772642822265626,2.615951538085937,5.9866042137146,-0.3854863047599792
2024-12-04 22:06:09.434718700,10.78271875,2.7850024700164795,5.503463268280029,-0.3675646185874939
2024-12-04 22:06:09.444794600,10.792794677734374,2.7796449661254883,4.7272257804870605,-0.4093898236751556
2024-12-04 22:06:09.454870800,10.802870849609375,2.6666831970214844,3.818134307861328,-0.4695565402507782
2024-12-04 22:06:09.464946700,10.81294677734375,2.5196845531463623,2.8517158031463623,-0.5307242274284363
2024-12-04 22:06:09.475022800,10.82302294921875,2.4041035175323486,1.8305734395980835,-0.5904170870780945
2024-12-04 22:06:09.485098000,10.833097900390625,2.335935592651367,0.828260600566864,-0.6228128671646118
2024-12-04 22:06:09.495173600,10.843173583984376,2.313246726989746,-0.061950247734785,-0.5709154009819031
2024-12-04 22:06:09.505249800,10.853249755859377,2.32481050491333,-0.787723958492279,-0.4349610507488251
2024-12-04 22:06:09.515325700,10.86332568359375,2.3526973724365234,-1.3324843645095823,-0.2189197689294815
2024-12-04 22:06:09.525401900,10.87340185546875,2.377720355987549,-1.7279542684555054,0.0087171215564012
2024-12-04 22:06:09.535476700,10.883476806640624,2.3531882762908936,-1.989987015724182,0.2075550556182861
2024-12-04 22:06:09.545552600,10.893552734375,2.290989398956299,-2.172030448913574,0.3517518937587738
2024-12-04 22:06:09.555628800,10.90362890625,2.23190975189209,-2.4245684146881104,0.4139524102210998
2024-12-04 22:06:09.565704700,10.91370458984375,2.225541830062866,-2.8585755825042725,0.3867913484573364
2024-12-04 22:06:09.575780900,10.92378076171875,2.254492998123169,-3.214787244796753,0.4028020203113556
2024-12-04 22:06:09.585855700,10.933855712890624,2.2659080028533936,-3.348567008972168,0.4790376722812652
2024-12-04 22:06:09.595931600,10.943931640625,2.287484645843506,-3.589376449584961,0.56963711977005
2024-12-04 22:06:09.606007800,10.9540078125,2.293142080307007,-3.926219701766968,0.7539209723472595
2024-12-04 22:06:09.616084000,10.964083984375,2.243160009384156,-4.225433826446533,1.109425067901611
2024-12-04 22:06:09.626159600,10.97415966796875,2.1405670642852783,-4.216004848480225,1.6043046712875366
2024-12-04 22:06:09.636234800,10.98423486328125,1.957408428192139,-3.5405514240264893,2.199676513671875
2024-12-04 22:06:09.646311000,10.994310791015623,1.7249751091003418,-2.180350542068481,2.868711471557617
2024-12-04 22:06:09.656386800,11.00438671875,1.407320499420166,-0.5614751577377319,3.4095749855041504
2024-12-04 22:06:09.666462700,11.014462646484375,1.1753982305526731,0.8206865191459656,3.342644214630127
2024-12-04 22:06:09.676538600,11.02453857421875,1.052704930305481,1.9917534589767456,2.775583982467652
2024-12-04 22:06:09.686614800,11.03461474609375,1.0300172567367554,2.9773659706115723,2.1465415954589844
2024-12-04 22:06:09.696690000,11.04468994140625,1.0407897233963013,3.835307121276856,1.8073304891586304
2024-12-04 22:06:09.706765600,11.054765625,1.0171408653259275,4.347594261169434,1.673789381980896
2024-12-04 22:06:09.716841700,11.064841796875,0.9446640014648438,4.070273399353027,1.80235493183136
2024-12-04 22:06:09.726917600,11.074917724609374,0.7615567445755005,2.217515707015991,2.1478917598724365
2024-12-04 22:06:09.736993800,11.084993896484375,0.6938984394073486,-0.6905144453048706,1.174926996231079
2024-12-04 22:06:09.747069000,11.09506884765625,0.7664808034896851,-2.1808905601501465,-0.5429078340530396
2024-12-04 22:06:09.757144600,11.10514453125,0.7618316411972046,-1.4432737827301023,-1.381987452507019
2024-12-04 22:06:09.767220700,11.115220703125,0.5478463768959045,0.3127897083759308,-1.1973217725753784
2024-12-04 22:06:09.777297000,11.125296875,0.3215681612491607,1.9439984560012813,-0.7453324198722839
2024-12-04 22:06:09.787372800,11.135372802734375,0.275224357843399,2.6380529403686523,-0.3058791160583496
2024-12-04 22:06:09.797447700,11.14544775390625,0.473185122013092,1.9858720302581787,0.248066559433937
2024-12-04 22:06:09.807523800,11.15552392578125,0.8371721506118774,0.5138571262359619,0.5768322348594666
2024-12-04 22:06:09.817599700,11.165599853515625,1.1833033561706543,-0.2803820669651031,0.5050544738769531
2024-12-04 22:06:09.827676000,11.175676025390626,1.4072173833847046,-0.0604140274226665,0.2789374589920044
2024-12-04 22:06:09.837751800,11.185751708984377,1.4029735326766968,0.3487328588962555,-0.1476838886737823
2024-12-04 22:06:09.847826700,11.19582666015625,1.2136070728302002,0.1416387856006622,-0.4827265739440918
2024-12-04 22:06:09.857902800,11.20590283203125,0.9298707246780396,-0.4094613492488861,-0.5725810527801514
2024-12-04 22:06:09.867979000,11.21597900390625,0.6046587824821472,-0.6863275170326233,-0.4894616603851318
2024-12-04 22:06:09.878055200,11.22605517578125,0.2239937484264373,-0.5041032433509827,-0.3284708857536316
2024-12-04 22:06:09.888131000,11.236131103515625,-0.1980493813753128,-0.0015002596192061,-0.2375481724739074
2024-12-04 22:06:09.898206200,11.246206298828126,-0.6261377930641174,0.6159210205078125,-0.2924982011318207
2024-12-04 22:06:09.908282000,11.2562822265625,-1.0655665397644043,1.2053488492965698,-0.6115933656692505
2024-12-04 22:06:09.918358000,11.26635791015625,-1.5626956224441528,1.5116429328918457,-1.1907398700714111
2024-12-04 22:06:09.928434200,11.27643408203125,-2.143526077270508,1.4506136178970337,-1.7090312242507937
2024-12-04 22:06:09.938510000,11.286510009765625,-2.7346434593200684,1.086896538734436,-2.005742311477661
2024-12-04 22:06:09.948585000,11.2965849609375,-3.2282280921936035,0.4793522953987121,-2.181357145309448
2024-12-04 22:06:09.958661000,11.3066611328125,-3.5719761848449707,-0.1092918962240219,-2.169930934906006
2024-12-04 22:06:09.968737000,11.316737060546876,-3.823979616165161,-0.5509688854217529,-1.890408992767334
2024-12-04 22:06:09.978813200,11.326813232421877,-4.045030117034912,-0.8388177752494812,-1.4494086503982544
2024-12-04 22:06:09.988889300,11.336889404296874,-4.27096700668335,-0.9523634910583496,-1.0777623653411863
2024-12-04 22:06:09.998964000,11.3469638671875,-4.485293388366699,-0.9435597658157348,-0.8712809681892395
2024-12-04 22:06:10.009040100,11.3570400390625,-4.642094612121582,-0.7927827835083008,-0.7691487073898315
2024-12-04 22:06:10.019116300,11.3671162109375,-4.732368469238281,-0.4940855801105499,-0.6860230565071106
2024-12-04 22:06:10.029192200,11.377192138671877,-4.778382301330566,-0.0476521626114845,-0.5367140173912048
2024-12-04 22:06:10.039268400,11.387268310546874,-4.798360347747803,0.3980847299098968,-0.1644140034914016
2024-12-04 22:06:10.049343200,11.39734326171875,-4.80372953414917,0.5363595485687256,0.4052481651306152
2024-12-04 22:06:10.059419100,11.407419189453124,-4.594071865081787,0.2940587401390075,0.6761763095855713
2024-12-04 22:06:10.069495300,11.417495361328124,-4.109909057617188,-0.1386700719594955,0.6073256134986877
2024-12-04 22:06:10.079571200,11.4275712890625,-3.460047006607056,-0.7165229320526123,0.298952579498291
2024-12-04 22:06:10.089647000,11.437647216796876,-2.797567367553711,-1.1429229974746704,-0.1568050980567932
2024-12-04 22:06:10.099722200,11.44772216796875,-2.2935290336608887,-1.1849859952926636,-0.6153573989868164
2024-12-04 22:06:10.109798100,11.457798095703126,-1.928646445274353,-1.2249706983566284,-1.04289972782135
2024-12-04 22:06:10.119874300,11.467874267578123,-1.688038349151611,-1.3497132062911987,-1.3122189044952393
2024-12-04 22:06:10.129950000,11.477949951171874,-1.5083889961242676,-1.637055516242981,-1.3611090183258057
2024-12-04 22:06:10.140026000,11.488026123046875,-1.3583917617797852,-2.0752499103546143,-1.2765322923660278
2024-12-04 22:06:10.150101200,11.498101318359376,-1.1877689361572266,-2.7427775859832764,-1.195282220840454
2024-12-04 22:06:10.160177200,11.50817724609375,-0.983373761177063,-3.577530860900879,-1.1185438632965088
2024-12-04 22:06:10.170253000,11.518253173828125,-0.8096590042114258,-4.098179340362549,-0.9991148710250854
2024-12-04 22:06:10.180329000,11.528328857421876,-0.70052170753479,-4.005073070526123,-0.801211416721344
2024-12-04 22:06:10.190405000,11.538405029296875,-0.6294469833374023,-3.319281101226806,-0.5286227464675903
2024-12-04 22:06:10.200480300,11.548480224609374,-0.6325041055679321,-2.2495994567871094,-0.2475329339504242
2024-12-04 22:06:10.210556000,11.558555908203124,-0.8062644600868225,-1.1615328788757324,0.0260338932275772
2024-12-04 22:06:10.220632000,11.568632080078125,-1.1419893503189087,-0.3378810286521911,0.305521696805954
2024-12-04 22:06:10.230708200,11.578708251953126,-1.4447693824768066,0.0666422322392463,0.6430837512016296
2024-12-04 22:06:10.240783000,11.588783203125,-1.5380656719207764,0.1199581772089004,1.014258861541748
2024-12-04 22:06:10.250859300,11.598859375,-1.4164950847625732,-0.0879465490579605,1.3543514013290403
